Accel_x,Accel_y,Accel_z,Gyr_x,Gyr_y,Gyr_z
-0.16,0.99,-0.05,-0.49,-2.52,-0.84
-0.16,0.99,-0.05,-0.35,-2.52,-0.7
-0.16,0.99,-0.05,0,-2.66,-0.7
-0.15,0.99,-0.05,-0.21,-2.73,-0.63
-0.15,0.99,-0.05,-0.14,-2.66,-0.91
-0.15,0.99,-0.05,0,-2.59,-0.77
-0.15,0.99,-0.05,0.28,-2.66,-0.7
-0.15,0.99,-0.05,0.63,-2.73,-0.63
-0.15,0.99,-0.05,0.63,-2.45,-0.77
-0.15,0.99,-0.06,0.84,-2.38,-0.77
-0.15,0.99,-0.06,0.91,-2.38,-0.7
-0.15,0.99,-0.06,0.63,-2.45,-0.77
-0.15,0.99,-0.06,0.49,-2.38,-0.7
-0.16,0.99,-0.06,0.28,-2.38,-0.84
-0.15,0.99,-0.06,0.07,-2.31,-0.7
-0.16,0.99,-0.06,-0.07,-2.24,-0.84
-0.15,0.99,-0.06,0.07,-2.1,-0.84
-0.16,0.99,-0.06,-17.78,-1.96,-0.98
-0.15,0.99,-0.05,0.21,-2.17,-0.63
-0.15,0.99,-0.06,0.07,-2.17,-0.84
-0.16,0.99,-0.05,0,-2.17,-0.84
-0.16,0.99,-0.05,-0.07,-2.31,-0.84
-0.16,0.99,-0.05,-0.07,-2.24,-1.12
-0.16,0.99,-0.05,0.14,-2.38,-0.77
-0.15,0.99,-0.06,0.28,-2.38,-0.91
-0.16,0.99,-0.05,0.14,-2.38,-0.98
-0.16,0.99,-0.05,0,-2.31,-0.91
-0.16,0.99,-0.06,0.21,-2.52,-0.84
-0.15,0.99,-0.06,0.14,-2.59,-0.84
-0.16,0.99,-0.05,-0.07,-2.59,-0.56
-0.15,0.99,-0.05,-0.07,-2.45,-0.91
-0.16,0.99,-0.05,0,-2.38,-0.91
-0.15,0.99,-0.05,0.14,-2.45,-0.77
-0.16,0.99,-0.05,-0.07,-2.31,-0.84
-0.15,0.99,-0.05,0.28,-2.45,-0.7
-0.15,0.99,-0.05,0.21,-2.45,-0.56
-0.15,0.99,-0.05,0.42,-2.52,-0.7
-0.16,0.99,-0.05,0.49,-2.38,-0.77
-0.16,0.99,-0.05,0.56,-2.66,-0.56
-0.16,0.99,-0.05,0.56,-2.66,-0.7
-0.16,0.99,-0.05,0.49,-2.66,-0.7
-0.15,0.99,-0.05,0.42,-2.52,-0.77
-0.15,0.99,-0.06,0.56,-2.73,-0.63
-0.15,0.99,-0.06,0.28,-2.59,-0.77
-0.15,0.99,-0.06,0.35,-2.52,-0.7
-0.15,0.99,-0.06,-17.85,-2.17,-0.98
-0.15,0.99,-0.06,0,-2.1,-0.84
-0.15,0.99,-0.06,-0.07,-2.1,-0.84
-0.15,0.99,-0.06,-0.14,-2.17,-0.91
-0.15,0.99,-0.06,-0.28,-2.03,-1.05
-0.16,0.99,-0.05,0,-2.24,-0.98
-0.16,0.99,-0.05,-0.07,-2.17,-0.98
-0.16,0.99,-0.05,0,-2.38,-0.77
-0.15,0.99,-0.05,-0.07,-2.17,-0.91
-0.16,0.99,-0.05,0.07,-2.38,-0.77
-0.15,0.99,-0.05,0.21,-2.45,-0.84
-0.16,0.99,-0.05,0.21,-2.45,-0.7
-0.16,0.99,-0.05,0.28,-2.52,-0.77
-0.15,0.99,-0.05,0.35,-2.66,-0.63
-0.15,0.99,-0.05,0.28,-2.52,-0.84
-0.15,0.99,-0.05,0.35,-2.45,-0.77
-0.15,0.99,-0.06,0.35,-2.45,-0.91
-0.15,0.99,-0.05,0.49,-2.52,-0.63
-0.15,0.99,-0.06,0.14,-2.45,-0.77
-0.16,0.99,-0.05,0,-2.45,-0.7
-0.16,0.99,-0.06,0.14,-2.24,-0.77
-0.15,0.99,-0.06,0.07,-2.24,-0.77
-0.15,0.99,-0.06,0.07,-2.31,-0.84
-0.15,0.99,-0.05,0.14,-2.38,-0.84
-0.15,0.99,-0.05,0.07,-2.45,-0.56
-0.15,0.99,-0.05,0.28,-2.31,-0.56
-0.15,0.99,-0.05,-0.07,-2.52,-0.77
-0.15,0.99,-0.05,0,-2.38,-0.91
-0.15,0.99,-0.06,0.28,-2.52,-0.77
-0.15,0.99,-0.06,0.07,-2.52,-0.91
-0.16,0.99,-0.06,0.21,-2.38,-0.84
-0.15,0.99,-0.06,0.14,-2.52,-1.05
-0.15,0.99,-0.06,0,-2.31,-0.91
-0.16,0.99,-0.06,0,-2.03,-1.05
-0.16,0.99,-0.05,0,-2.38,-0.84
-0.15,0.99,-0.05,0.07,-2.24,-0.91
-0.16,0.99,-0.05,0,-2.31,-0.84
-0.16,0.99,-0.05,0.07,-2.24,-0.77
-0.16,0.99,-0.05,0.07,-2.24,-0.91
-0.16,0.99,-0.05,0,-2.1,-0.98
-0.16,0.99,-0.05,0.14,-2.24,-0.84
-0.16,0.99,-0.05,0,-2.24,-0.98
-0.16,0.99,-0.05,0.14,-2.38,-0.77
-0.15,0.99,-0.05,0.63,-2.73,-0.56
-0.15,0.99,-0.05,0.14,-2.45,-0.84
-0.16,0.99,-0.05,0.07,-2.52,-0.84
-0.15,0.99,-0.06,0.49,-2.66,-0.77
-0.15,0.99,-0.06,0.35,-2.38,-0.91
-0.15,0.99,-0.06,0.35,-2.52,-0.7
-0.15,0.99,-0.06,0.42,-2.45,-0.7
-0.15,0.99,-0.06,0.35,-2.38,-0.7
-0.15,0.99,-0.05,0.35,-2.38,-0.7
-0.15,0.99,-0.06,0.35,-2.17,-0.91
-0.16,0.99,-0.05,0.07,-2.38,-0.77
-0.15,0.99,-0.05,0.14,-2.24,-0.77
-0.16,0.99,-0.06,-0.21,-2.31,-0.91
-0.16,0.99,-0.05,-0.07,-2.24,-0.91
-0.15,0.99,-0.05,-0.07,-2.45,-0.98
-0.16,0.99,-0.05,0.21,-2.45,-0.7
-0.15,0.99,-0.05,0,-2.1,-1.05
-0.16,0.99,-0.05,0.21,-2.31,-0.98
-0.16,0.99,-0.05,-0.14,-2.45,-0.98
-0.16,0.99,-0.05,0.14,-2.52,-0.84
-0.15,0.99,-0.06,0,-2.38,-0.91
-0.15,0.99,-0.05,0.21,-2.52,-0.91
-0.15,0.99,-0.05,0.14,-2.45,-0.7
-0.15,0.99,-0.05,0.28,-2.38,-0.91
-0.16,0.99,-0.05,0.14,-2.31,-0.91
-0.16,0.99,-0.05,0.14,-2.38,-0.77
-0.16,0.99,-0.05,0.21,-2.31,-0.77
-0.16,0.99,-0.05,0.28,-2.45,-0.84
-0.16,0.99,-0.05,0.07,-2.38,-0.77
-0.16,0.99,-0.05,0.49,-2.52,-0.7
-0.16,0.99,-0.05,0.35,-2.38,-0.77
-0.16,0.99,-0.05,0.35,-2.45,-0.63
-0.16,0.99,-0.06,0.07,-2.45,-0.77
-0.15,0.99,-0.05,-0.07,-2.59,-0.84
-0.15,0.99,-0.05,0.07,-2.59,-0.7
-0.15,0.99,-0.06,0.07,-2.45,-0.77
-0.15,0.99,-0.05,0.07,-2.38,-0.84
-0.15,0.99,-0.05,-0.07,-2.1,-0.98
-0.16,0.99,-0.05,0.21,-2.17,-0.77
-0.16,0.99,-0.05,0.07,-2.03,-0.7
-0.16,0.99,-0.05,0.14,-2.1,-0.77
-0.16,0.99,-0.05,0.35,-2.24,-0.7
-0.16,0.99,-0.05,0.21,-2.38,-0.7
-0.16,0.99,-0.06,-0.14,-2.31,-0.91
-0.15,0.99,-0.05,0.35,-2.59,-0.77
-0.15,0.99,-0.05,0.07,-2.38,-0.84
-0.15,0.99,-0.05,0.49,-2.59,-0.84
-0.15,0.99,-0.05,0.28,-2.24,-0.98
-0.16,0.99,-0.06,0.49,-2.45,-0.63
-0.15,0.99,-0.06,0.63,-2.52,-0.63
-0.16,0.99,-0.05,0.63,-2.59,-0.7
-0.15,0.99,-0.05,0.21,-2.45,-0.84
-0.16,0.99,-0.06,0.07,-2.59,-0.91
-0.15,0.99,-0.06,0.07,-2.45,-0.77
-0.15,0.99,-0.06,0,-2.24,-0.98
-0.15,0.99,-0.06,0,-2.38,-0.77
-0.15,0.99,-0.06,0.07,-2.45,-0.84
-0.15,0.99,-0.05,0.14,-2.38,-0.84
-0.15,0.99,-0.05,-0.14,-2.1,-0.98
-0.15,0.99,-0.05,0,-2.17,-0.77
-0.16,0.99,-0.05,0.21,-2.03,-1.05
-0.16,0.99,-0.05,0.07,-2.31,-0.84
-0.15,0.99,-0.05,0.35,-2.45,-0.7
-0.16,0.99,-0.05,0.28,-2.38,-0.77
-0.16,0.99,-0.05,0.07,-2.38,-0.77
-0.16,0.99,-0.05,0.07,-2.45,-0.84
-0.15,0.99,-0.05,0.14,-2.38,-0.98
-0.16,0.99,-0.05,0.07,-2.38,-0.77
-0.15,0.99,-0.05,-17.71,-2.38,-0.84
-0.15,0.99,-0.05,0.21,-2.59,-0.77
-0.15,0.99,-0.05,0.28,-2.38,-0.7
-0.15,0.99,-0.05,0.28,-2.52,-0.77
-0.16,0.99,-0.05,0.21,-2.45,-0.7
-0.16,0.99,-0.05,0.07,-2.52,-0.63
-0.15,0.99,-0.05,0.14,-2.24,-0.91
-0.15,0.99,-0.05,0.07,-2.24,-0.91
-0.15,0.99,-0.06,0.14,-2.24,-0.77
-0.15,0.99,-0.05,0.21,-2.31,-0.7
-0.15,0.99,-0.05,0.07,-2.24,-0.84
-0.15,0.99,-0.06,0.14,-2.31,-0.98
-0.15,0.99,-0.06,0.14,-2.17,-1.12
-0.15,0.99,-0.06,-0.07,-2.17,-0.91
-0.15,0.99,-0.06,0.21,-2.38,-0.84
-0.16,0.99,-0.06,0,-2.24,-0.91
-0.16,0.99,-0.06,-0.07,-2.17,-0.98
-0.16,0.99,-0.05,0.07,-2.17,-0.91
-0.16,0.99,-0.05,-0.14,-2.03,-0.7
-0.16,0.99,-0.05,-0.14,-2.03,-0.91
-0.16,0.99,-0.05,-0.14,-2.17,-0.63
-0.16,0.99,-0.05,0,-2.31,-0.7
-0.16,0.99,-0.05,0.07,-2.45,-0.63
-0.16,0.99,-0.05,-0.14,-2.45,-0.84
-0.16,0.99,-0.05,0,-2.45,-0.77
-0.15,0.99,-0.05,0.07,-2.52,-0.63
-0.15,0.99,-0.05,0.35,-2.94,-0.42
-0.15,0.99,-0.05,0.56,-2.73,-0.56
-0.15,0.99,-0.05,0.56,-2.59,-0.56
-0.15,0.99,-0.05,0.49,-2.52,-0.63
-0.15,0.99,-0.05,0.49,-2.24,-0.84
-0.15,0.99,-0.06,0.49,-2.31,-0.98
-0.15,0.99,-0.06,0.42,-2.24,-0.7
-0.15,0.99,-0.06,0.7,-2.1,-0.84
-0.16,0.99,-0.06,0.28,-2.31,-0.91
-0.16,0.99,-0.05,0.56,-2.66,-0.56
-0.15,0.99,-0.05,0.28,-2.38,-0.7
-0.16,0.99,-0.05,0.42,-2.45,-0.56
-0.16,0.99,-0.05,0.49,-2.52,-0.42
-0.16,0.99,-0.05,0.35,-2.45,-0.77
-0.15,0.99,-0.05,0.35,-2.66,-0.42
-0.15,0.99,-0.05,0.63,-2.59,-0.42
-0.15,0.99,-0.05,0.49,-2.45,-0.56
-0.15,0.99,-0.05,0.49,-2.45,-0.56
-0.15,0.99,-0.05,0.63,-2.45,-0.35
-0.15,0.99,-0.05,0.63,-2.38,-0.56
-0.15,0.99,-0.05,0.63,-2.17,-0.35
-0.15,0.98,-0.05,0.84,-2.31,-0.14
-0.15,0.99,-0.05,1.05,-2.52,-0.21
-0.15,0.99,-0.05,0.63,-2.45,-0.49
-0.15,0.99,-0.05,0.49,-2.38,-0.42
-0.15,0.99,-0.06,0.35,-2.45,-0.56
-0.15,0.99,-0.06,0.49,-2.45,-0.28
-0.15,0.99,-0.06,0.14,-2.1,-0.7
-0.15,0.99,-0.06,0.35,-2.31,-0.56
-0.15,0.99,-0.06,0.35,-2.1,-0.56
-0.16,0.99,-0.06,0,-2.03,-0.56
-0.15,0.99,-0.06,0.21,-1.89,-0.49
-0.16,0.99,-0.06,0,-2.03,-0.49
-0.15,0.99,-0.06,0,-2.17,-0.56
-0.15,0.99,-0.06,0.07,-2.38,-0.42
-0.16,0.99,-0.06,0.14,-2.8,-0.7
-0.15,0.99,-0.05,0,-2.87,-0.7
-0.15,0.99,-0.06,0.07,-3.01,-0.7
-0.15,0.99,-0.06,0.07,-3.08,-0.77
-0.15,0.99,-0.06,-0.07,-3.08,-0.84
-0.16,0.99,-0.06,-0.56,-2.94,-0.98
-0.13,0.99,-0.05,-0.14,-2.8,-0.77
-0.16,1,-0.07,0.07,-2.66,-1.05
-0.15,0.98,-0.05,-0.77,-2.59,-0.98
-0.15,0.99,-0.05,-0.35,-2.03,-0.98
-0.14,0.99,-0.06,0,-2.38,-0.84
-0.17,0.99,-0.05,-1.26,-1.89,-0.7
-0.12,0.99,-0.04,0.28,-1.12,-0.91
-0.15,1,-0.07,-0.42,-2.59,-0.77
-0.15,0.99,-0.05,-0.35,-1.75,-0.91
-0.16,0.99,-0.05,-0.42,-1.61,-1.12
-0.14,0.99,-0.05,-0.14,-2.24,-0.91
-0.16,0.99,-0.06,-0.35,-2.31,-0.91
-0.15,0.99,-0.05,-0.21,-2.24,-0.98
-0.16,0.99,-0.05,-0.35,-2.31,-0.98
-0.15,0.99,-0.06,0,-2.1,-0.84
-0.15,0.99,-0.05,-0.35,-2.1,-0.91
-0.16,0.99,-0.06,-0.42,-2.1,-1.12
-0.15,0.99,-0.06,-0.35,-2.03,-0.77
-0.15,0.99,-0.05,-0.42,-2.1,-0.77
-0.15,0.99,-0.06,-0.35,-1.82,-0.91
-0.15,0.99,-0.05,-0.35,-1.61,-0.84
-0.15,0.99,-0.06,-0.56,-1.68,-0.98
-0.16,0.99,-0.05,-0.42,-1.82,-0.98
-0.16,0.99,-0.05,-0.49,-1.89,-1.12
-0.15,0.99,-0.05,-0.56,-2.17,-1.05
-0.15,0.99,-0.05,-0.91,-2.66,-0.98
-0.15,0.99,-0.06,-0.98,-2.52,-1.12
-0.15,0.99,-0.05,-1.26,-2.52,-1.26
-0.15,0.99,-0.06,-0.98,-2.8,-1.05
-0.15,0.99,-0.05,-1.19,-2.59,-1.26
-0.15,0.99,-0.06,-1.19,-2.59,-1.26
-0.15,0.99,-0.06,-1.19,-2.24,-1.26
-0.15,0.99,-0.05,-1.47,-2.1,-1.33
-0.16,0.99,-0.05,-1.33,-2.1,-1.26
-0.16,0.99,-0.05,-1.26,-2.17,-1.26
-0.16,0.99,-0.05,-1.47,-2.17,-1.26
-0.16,0.99,-0.05,-1.26,-2.24,-1.26
-0.16,0.99,-0.05,-1.4,-2.31,-1.33
-0.16,0.99,-0.05,-1.05,-2.45,-1.26
-0.16,0.99,-0.05,-0.98,-2.38,-1.19
-0.16,0.99,-0.05,-1.12,-2.31,-1.26
-0.16,0.99,-0.04,-0.84,-2.52,-1.05
-0.16,0.99,-0.05,-0.63,-2.52,-0.91
-0.16,0.99,-0.05,-0.63,-2.38,-1.05
-0.15,0.99,-0.04,-0.28,-2.52,-0.91
-0.16,0.99,-0.04,-0.07,-2.45,-0.84
-0.15,0.99,-0.04,0.28,-2.45,-0.7
-0.15,0.99,-0.04,0.56,-2.52,-0.63
-0.16,0.99,-0.04,0.56,-2.38,-0.7
-0.16,0.99,-0.04,1.19,-2.52,-0.35
-0.16,0.99,-0.04,1.12,-2.24,-0.7
-0.15,0.99,-0.04,1.47,-2.73,-0.14
-0.15,0.99,-0.05,1.33,-2.45,-0.28
-0.16,0.99,-0.04,1.61,-2.59,-0.35
-0.16,0.99,-0.05,1.68,-2.8,-0.35
-0.11,1,-0.03,2.1,-1.82,-0.63
-0.2,0.99,-0.07,-0.14,-3.29,-0.98
-0.13,0.97,-0.04,1.75,-1.96,-0.49
-0.15,1,-0.07,2.17,-2.94,-0.42
-0.16,0.99,-0.06,0.91,-2.87,-0.35
-0.15,0.99,-0.05,0.63,-2.24,-0.77
-0.16,0.99,-0.07,0.7,-2.73,-0.7
-0.15,0.99,-0.05,0.21,-2.45,-0.7
-0.15,0.99,-0.05,0.21,-2.17,-0.56
-0.15,0.99,-0.06,0.14,-2.24,-0.56
-0.15,0.99,-0.06,-0.14,-2.17,-0.91
-0.15,0.99,-0.05,-0.07,-2.38,-1.05
-0.15,0.99,-0.05,0.07,-2.24,-0.91
-0.15,0.99,-0.05,-0.21,-2.03,-1.12
-0.15,0.99,-0.05,0.21,-2.17,-0.91
-0.16,0.99,-0.05,0.07,-2.17,-1.12
-0.16,0.99,-0.05,-0.21,-2.45,-1.12
-0.16,0.99,-0.05,0,-2.66,-1.05
-0.16,0.99,-0.05,-0.21,-2.73,-0.98
-0.16,0.99,-0.05,-0.21,-2.66,-0.98
-0.16,0.99,-0.05,-0.56,-2.45,-1.05
-0.16,0.99,-0.05,-0.35,-2.59,-0.98
-0.16,0.99,-0.05,-0.28,-2.45,-0.91
-0.15,0.99,-0.05,-0.07,-2.45,-0.84
-0.15,0.99,-0.05,0.14,-2.38,-0.91
-0.15,0.99,-0.05,-0.14,-2.17,-1.19
-0.16,0.99,-0.05,0.28,-2.38,-0.98
-0.16,0.99,-0.05,0.35,-2.38,-0.84
-0.16,0.99,-0.05,0.98,-2.8,-0.49
-0.15,0.99,-0.05,0.7,-2.66,-0.98
-0.15,0.99,-0.05,0.77,-2.73,-0.63
-0.16,0.99,-0.05,0.91,-2.59,-0.77
-0.15,0.99,-0.05,0.84,-2.59,-0.56
-0.15,0.99,-0.05,0.84,-2.59,-0.63
-0.15,0.99,-0.05,0.84,-2.66,-0.63
-0.15,0.99,-0.06,0.91,-2.66,-0.77
-0.15,0.99,-0.06,0.84,-2.59,-0.56
-0.15,0.99,-0.06,0.63,-2.31,-0.77
-0.15,0.99,-0.05,0.56,-2.66,-0.56
-0.15,0.99,-0.06,0.42,-2.45,-0.84
-0.16,0.99,-0.05,0.28,-2.45,-0.77
-0.15,0.99,-0.06,0.28,-2.38,-0.84
-0.15,0.99,-0.05,-0.07,-2.31,-0.77
-0.15,0.99,-0.05,0,-2.31,-1.05
-0.15,0.99,-0.05,-0.07,-2.45,-0.91
-0.15,0.99,-0.05,-0.21,-2.45,-1.05
-0.16,0.99,-0.05,-0.07,-2.38,-0.91
-0.15,0.99,-0.05,-0.28,-2.31,-0.98
-0.15,0.99,-0.05,-0.14,-2.31,-1.19
-0.16,0.99,-0.05,-0.28,-2.38,-1.26
-0.15,0.99,-0.05,-0.21,-2.38,-0.91
-0.15,0.99,-0.05,-0.35,-2.45,-0.77
-0.16,0.99,-0.05,-0.35,-2.31,-0.98
-0.16,0.99,-0.05,-0.07,-2.38,-0.84
-0.15,0.99,-0.05,-0.07,-2.24,-0.98
-0.15,0.99,-0.05,0,-2.45,-0.77
-0.15,0.99,-0.05,-0.07,-2.1,-0.91
-0.16,0.99,-0.05,0.42,-2.38,-0.7
-0.15,0.99,-0.05,0.42,-2.38,-0.77
-0.16,0.99,-0.05,0.21,-2.38,-0.91
-0.15,0.99,-0.05,0.42,-2.52,-0.84
-0.15,0.99,-0.05,0.49,-2.59,-0.7
-0.15,0.99,-0.05,0.63,-2.52,-0.77
-0.15,0.99,-0.05,0.49,-2.52,-0.7
-0.15,0.99,-0.05,0.49,-2.66,-0.77
-0.15,0.99,-0.05,0.07,-2.31,-0.98
-0.15,0.99,-0.06,0.42,-2.52,-0.84
-0.15,0.99,-0.05,0.42,-2.24,-0.77
-0.15,0.99,-0.05,0.14,-2.31,-0.84
-0.15,0.99,-0.05,0.21,-2.31,-0.84
-0.15,0.99,-0.05,0,-2.17,-0.91
-0.15,0.99,-0.05,0.07,-2.17,-0.77
-0.15,0.99,-0.05,0.07,-2.45,-0.63
-0.16,0.99,-0.05,-0.14,-2.17,-0.98
-0.15,0.99,-0.05,-0.07,-2.17,-1.12
-0.15,0.99,-0.05,-0.07,-2.45,-0.84
-0.16,0.99,-0.05,-0.14,-2.24,-0.91
-0.16,0.99,-0.05,0.14,-2.38,-0.84
-0.16,0.99,-0.05,-0.07,-2.38,-0.98
-0.15,0.99,-0.05,0,-2.38,-0.77
-0.16,0.99,-0.05,0.28,-2.52,-0.84
-0.15,0.99,-0.05,0.14,-2.31,-0.91
-0.16,0.99,-0.05,0.21,-2.52,-0.56
-0.15,0.99,-0.05,0,-2.38,-0.91
-0.15,0.99,-0.05,0.28,-2.59,-0.77
-0.15,0.99,-0.05,0.21,-2.38,-0.7
-0.15,0.99,-0.05,0.21,-2.38,-0.7
-0.15,0.99,-0.05,0.28,-2.38,-0.7
-0.15,0.99,-0.05,0.21,-2.38,-0.77
-0.15,0.99,-0.05,0.42,-2.45,-0.77
-0.16,0.99,-0.05,0.28,-2.45,-0.84
-0.15,0.99,-0.05,0.14,-2.31,-0.84
-0.15,0.99,-0.05,0.21,-2.45,-0.91
-0.16,0.99,-0.05,0.42,-2.52,-0.91
-0.15,0.99,-0.05,0.21,-2.52,-0.63
-0.16,0.99,-0.05,0.14,-2.31,-0.84
-0.15,0.99,-0.05,-0.07,-2.31,-0.98
-0.15,0.99,-0.05,0,-2.38,-0.77
-0.16,0.99,-0.05,0.14,-2.45,-0.7
-0.15,0.99,-0.05,0,-2.31,-0.91
-0.15,0.99,-0.05,0.28,-2.38,-0.56
-0.15,0.99,-0.05,0.07,-2.38,-0.84
-0.15,0.99,-0.05,0.07,-2.17,-0.98
-0.16,0.99,-0.05,0.14,-2.31,-0.84
-0.16,0.99,-0.05,0.21,-2.38,-0.77
-0.15,0.99,-0.05,0.14,-2.45,-0.91
-0.15,0.99,-0.05,0.42,-2.52,-0.77
-0.15,0.99,-0.05,0.28,-2.45,-0.77
-0.15,0.99,-0.05,0.28,-2.38,-0.84
-0.16,0.99,-0.05,0.7,-2.66,-0.49
-0.16,0.99,-0.05,0.49,-2.59,-0.63
-0.15,0.99,-0.05,0.21,-2.45,-0.91
-0.15,0.99,-0.05,0.42,-2.52,-0.7
-0.15,0.99,-0.05,0.21,-2.31,-0.77
-0.16,0.99,-0.05,0.14,-2.38,-0.91
-0.15,0.99,-0.05,0,-2.24,-0.98
-0.15,0.99,-0.05,0.14,-2.45,-0.84
-0.15,0.99,-0.05,0.14,-2.38,-0.77
-0.16,0.99,-0.05,0.35,-2.59,-0.63
-0.16,0.99,-0.05,0.35,-2.52,-0.63
-0.15,0.99,-0.05,0.14,-2.45,-0.91
-0.16,0.99,-0.05,-0.07,-2.31,-0.84
-0.15,0.99,-0.05,0.07,-2.31,-0.84
-0.15,0.99,-0.05,0.07,-2.38,-0.84
-0.15,0.99,-0.05,0.21,-2.38,-0.7
-0.15,0.99,-0.05,-0.07,-2.31,-0.91
-0.16,0.99,-0.05,0.07,-2.38,-0.84
-0.15,0.99,-0.05,-0.07,-2.24,-0.91
-0.15,0.99,-0.05,-0.07,-2.38,-0.77
-0.15,0.99,-0.05,0.07,-2.24,-0.91
-0.15,0.99,-0.05,0,-2.24,-0.91
-0.15,0.99,-0.05,0.35,-2.38,-0.7
-0.15,0.99,-0.05,0.21,-2.45,-0.77
-0.15,0.99,-0.05,0.07,-2.38,-0.91
-0.15,0.99,-0.05,0.21,-2.38,-0.63
-0.16,0.99,-0.05,0.21,-2.45,-0.77
-0.15,0.99,-0.05,0.28,-2.45,-0.7
-0.15,0.99,-0.05,0.42,-2.45,-0.84
-0.15,0.99,-0.05,0.42,-2.45,-0.77
-0.15,0.99,-0.05,0.21,-2.45,-0.77
-0.16,0.99,-0.05,0.14,-2.24,-0.7
-0.15,0.99,-0.05,0.21,-2.45,-0.77
-0.15,0.99,-0.05,-0.14,-2.24,-0.77
-0.15,0.99,-0.05,0.07,-2.38,-0.84
-0.15,0.99,-0.05,0.14,-2.38,-0.84
-0.16,0.99,-0.05,0.28,-2.38,-0.63
-0.15,0.99,-0.05,-0.14,-2.24,-0.98
-0.16,0.99,-0.05,0.28,-2.38,-0.84
-0.15,0.99,-0.05,0.21,-2.45,-0.7
-0.15,0.99,-0.05,0.07,-2.24,-0.84
-0.15,0.99,-0.05,0,-2.52,-0.77
-0.15,0.99,-0.05,0.35,-2.59,-0.7
-0.15,0.99,-0.05,0.07,-2.59,-0.84
-0.16,0.99,-0.05,0,-2.38,-0.91
-0.15,0.99,-0.05,0.28,-2.38,-0.84
-0.16,0.99,-0.05,0,-2.38,-0.84
-0.15,0.99,-0.05,0,-2.24,-0.91
-0.15,0.99,-0.05,-17.85,-2.24,-0.91
-0.15,0.99,-0.05,-0.21,-2.31,-0.98
-0.15,0.99,-0.05,0.07,-2.24,-0.84
-0.15,0.99,-0.05,-0.07,-2.31,-0.84
-0.16,0.99,-0.05,0.35,-2.45,-0.77
-0.15,0.99,-0.05,0.14,-2.45,-0.77
-0.15,0.99,-0.05,0.07,-2.24,-0.84
-0.15,0.99,-0.05,0.21,-2.38,-0.84
-0.15,0.99,-0.05,0.28,-2.38,-0.77
-0.15,0.99,-0.05,0.07,-2.38,-0.91
-0.15,0.99,-0.05,0.14,-2.59,-0.91
-0.16,0.99,-0.05,0.21,-2.52,-0.84
-0.15,0.99,-0.05,0,-2.45,-0.7
-0.15,0.99,-0.05,0.28,-2.24,-0.84
-0.15,0.99,-0.05,0.49,-2.52,-0.56
-0.15,0.99,-0.05,0.35,-2.45,-0.77
-0.16,0.99,-0.05,0.35,-2.45,-0.7
-0.16,0.99,-0.05,0.35,-2.52,-0.91
-0.15,0.99,-0.05,0.21,-2.45,-0.98
-0.16,0.99,-0.05,0.21,-2.38,-0.91
-0.15,0.99,-0.05,0.14,-2.24,-0.84
-0.16,0.99,-0.05,0.35,-2.52,-0.84
-0.15,0.99,-0.05,0.21,-2.31,-0.7
-0.15,0.99,-0.05,0,-2.31,-0.84
-0.15,0.99,-0.05,0.21,-2.52,-0.7
-0.15,0.99,-0.05,0.21,-2.45,-0.98
-0.15,0.99,-0.05,0.14,-2.45,-0.77
-0.16,0.99,-0.05,0.28,-2.59,-0.77
-0.15,0.99,-0.05,0.35,-2.59,-0.7
-0.15,0.99,-0.05,0.14,-2.45,-0.84
-0.15,0.99,-0.05,0.07,-2.45,-0.63
-0.15,0.99,-0.05,-0.14,-2.24,-1.05
-0.16,0.99,-0.05,0.07,-2.17,-1.05
-0.15,0.99,-0.05,0.07,-2.38,-0.77
-0.16,0.99,-0.05,0.07,-2.31,-0.84
-0.15,0.99,-0.05,0.28,-2.38,-0.77
-0.15,0.99,-0.05,0,-2.24,-0.84
-0.16,0.99,-0.05,0.07,-2.45,-0.7
-0.16,0.99,-0.05,0,-2.31,-0.77
-0.15,0.99,-0.05,-0.07,-2.45,-0.7
-0.15,0.99,-0.05,0.28,-2.38,-0.77
-0.16,0.99,-0.05,0.14,-2.31,-0.84
-0.15,0.99,-0.05,0.28,-2.45,-0.77
-0.15,0.99,-0.05,0.21,-2.24,-0.91
-0.15,0.99,-0.05,-17.92,-2.31,-0.91
-0.15,0.99,-0.05,0.14,-2.45,-0.77
-0.15,0.99,-0.05,0.28,-2.52,-0.77
-0.15,0.99,-0.05,0.07,-2.45,-0.84
-0.15,0.99,-0.05,0.07,-2.24,-0.84
-0.16,0.99,-0.05,0.07,-2.59,-0.56
-0.15,0.99,-0.05,0.21,-2.52,-0.63
-0.16,0.99,-0.05,0.21,-2.31,-0.77
-0.16,0.99,-0.05,0.28,-2.31,-0.77
-0.15,0.99,-0.05,0.28,-2.52,-0.7
-0.16,0.99,-0.05,-0.07,-2.31,-0.77
-0.16,0.99,-0.05,0.14,-2.59,-0.77
-0.15,0.99,-0.05,0.14,-2.38,-0.77
-0.15,0.99,-0.05,0.14,-2.24,-0.98
-0.15,0.99,-0.05,0,-2.38,-0.84
-0.15,0.99,-0.05,0.28,-2.52,-0.84
-0.15,0.99,-0.05,0.14,-2.38,-0.77
-0.15,0.99,-0.05,0.21,-2.38,-0.84
-0.15,0.99,-0.05,0.35,-2.52,-0.7
-0.15,0.99,-0.05,0.35,-2.1,-0.98
-0.15,0.99,-0.05,0.28,-2.24,-0.84
-0.15,0.99,-0.05,0.49,-2.45,-0.7
-0.16,0.99,-0.05,0.07,-2.24,-0.77
-0.16,0.99,-0.06,0.21,-2.38,-0.84
-0.16,0.99,-0.05,0.21,-2.59,-0.98
-0.15,0.99,-0.05,0,-2.31,-0.84
-0.15,0.99,-0.05,0.35,-2.8,-0.56
-0.15,0.99,-0.05,0.42,-2.66,-0.63
-0.15,0.99,-0.05,0.07,-2.45,-0.77
-0.15,0.99,-0.05,0.07,-2.45,-0.77
-0.15,0.99,-0.05,0.21,-2.52,-0.63
-0.16,0.99,-0.05,0.28,-2.45,-0.77
-0.15,0.99,-0.05,0.28,-2.45,-0.84
-0.15,0.99,-0.05,0.28,-2.45,-0.77
-0.15,0.99,-0.05,0.21,-2.52,-0.98
-0.15,0.99,-0.05,-0.14,-2.38,-0.98
-0.15,0.99,-0.05,0.21,-2.45,-0.84
-0.15,0.99,-0.05,0.14,-2.31,-0.84
-0.15,0.99,-0.05,0.21,-2.1,-0.98
-0.15,0.99,-0.05,0.21,-2.24,-0.77
-0.15,0.99,-0.05,-0.21,-2.03,-0.98
-0.15,0.99,-0.05,-0.21,-2.24,-0.98
-0.15,0.99,-0.05,0.07,-2.38,-0.49
-0.15,0.99,-0.05,0,-2.38,-0.84
-0.15,0.99,-0.05,-0.07,-2.38,-0.84
-0.16,0.99,-0.05,0.35,-2.59,-0.63
-0.15,0.99,-0.05,0.14,-2.38,-0.84
-0.15,0.99,-0.05,0.28,-2.38,-0.84
-0.15,0.99,-0.05,0,-2.31,-0.91
-0.16,0.99,-0.06,0.14,-2.45,-0.84
-0.16,0.99,-0.05,0.28,-2.31,-0.63
-0.15,0.99,-0.05,0.28,-2.45,-0.84
-0.15,0.99,-0.05,0.21,-2.59,-0.56
-0.15,0.99,-0.05,0.21,-2.52,-0.77
-0.15,0.99,-0.05,0.28,-2.59,-0.77
-0.15,0.99,-0.05,0.07,-2.38,-0.7
-0.15,0.99,-0.05,0.28,-2.45,-0.7
-0.16,0.99,-0.05,-0.14,-2.24,-0.98
-0.15,0.99,-0.05,0.14,-2.31,-0.56
-0.15,0.99,-0.05,-0.07,-2.31,-0.91
-0.16,0.99,-0.05,0.07,-2.52,-0.77
-0.16,0.99,-0.05,0,-2.31,-0.84
-0.16,0.99,-0.05,0.21,-2.24,-0.77
-0.16,0.99,-0.05,0.21,-2.45,-0.77
-0.15,0.99,-0.05,0.07,-2.38,-0.84
-0.16,0.99,-0.05,0.07,-2.38,-0.77
-0.16,0.99,-0.05,0.28,-2.52,-0.84
-0.16,0.99,-0.05,0.28,-2.59,-0.84
-0.16,0.99,-0.05,0.28,-2.59,-0.77
-0.15,0.99,-0.05,0,-2.38,-0.91
-0.16,0.99,-0.05,0.35,-2.66,-0.7
-0.15,0.99,-0.05,0.14,-2.31,-0.91
-0.15,0.99,-0.05,0.14,-2.45,-0.84
-0.15,0.99,-0.05,0.21,-2.52,-0.77
-0.15,0.99,-0.05,0.14,-2.38,-0.77
-0.15,0.99,-0.05,0.14,-2.1,-1.05
-0.15,0.99,-0.05,0.21,-2.45,-0.7
-0.15,0.99,-0.05,0.35,-2.45,-0.84
-0.15,0.99,-0.05,0.21,-2.45,-0.77
-0.15,0.99,-0.05,-0.07,-2.31,-0.91
-0.15,0.99,-0.05,0.14,-2.38,-0.56
-0.15,0.99,-0.05,0.28,-2.45,-0.77
-0.15,0.99,-0.05,-0.07,-2.31,-0.77
-0.16,0.99,-0.05,0.21,-2.31,-0.84
-0.16,0.99,-0.05,0.07,-2.31,-1.12
-0.15,0.99,-0.05,0.14,-2.59,-0.98
-0.15,0.99,-0.05,0,-2.45,-0.84
-0.15,0.99,-0.05,0.07,-2.45,-0.77
-0.16,0.99,-0.05,0.07,-2.45,-0.77
-0.16,0.99,-0.05,0.07,-2.24,-0.77
-0.15,0.99,-0.05,0.14,-2.31,-0.77
-0.15,0.99,-0.05,0.14,-2.45,-0.7
-0.15,0.99,-0.05,0.35,-2.52,-0.77
-0.16,0.99,-0.05,0.35,-2.45,-0.84
-0.16,0.99,-0.05,0.07,-2.38,-0.91
-0.16,0.99,-0.05,0.49,-2.52,-0.7
-0.16,0.99,-0.05,0.28,-2.52,-0.84
-0.15,0.99,-0.05,0.35,-2.52,-0.84
-0.16,0.99,-0.05,0.42,-2.31,-0.77
-0.15,0.99,-0.05,0.35,-2.52,-0.7
-0.15,0.99,-0.05,0.28,-2.52,-0.77
-0.15,0.99,-0.05,0.35,-2.52,-0.77
-0.16,0.99,-0.05,0.14,-2.38,-0.77
-0.15,0.99,-0.05,-0.14,-2.24,-0.91
-0.15,0.99,-0.05,0.14,-2.45,-0.84
-0.15,0.99,-0.05,0,-2.38,-0.7
-0.15,0.99,-0.05,0.28,-2.59,-0.7
-0.16,0.99,-0.05,-0.28,-2.1,-0.98
-0.15,0.99,-0.06,0,-2.31,-0.98
-0.15,0.99,-0.05,0.07,-2.24,-1.12
-0.15,0.99,-0.05,-0.07,-2.31,-0.98
-0.15,0.99,-0.05,0.14,-2.38,-0.77
-0.16,0.99,-0.05,0.28,-2.45,-0.7
-0.16,0.99,-0.05,0.21,-2.52,-0.77
-0.15,0.99,-0.05,0.14,-2.38,-0.77
-0.16,0.99,-0.05,0.28,-2.52,-0.84
-0.16,0.99,-0.05,0.28,-2.45,-0.98
-0.16,0.99,-0.05,0.21,-2.45,-0.84
-0.16,0.99,-0.05,0.21,-2.31,-0.98
-0.16,0.99,-0.05,0.21,-2.45,-0.77
-0.15,0.99,-0.05,0.07,-2.24,-0.91
-0.15,0.99,-0.05,0.35,-2.45,-0.77
-0.16,0.99,-0.05,0.35,-2.52,-0.77
-0.15,0.99,-0.05,0.21,-2.38,-1.05
-0.16,0.99,-0.05,0.28,-2.52,-0.7
-0.15,0.99,-0.05,0,-2.38,-0.7
-0.15,0.99,-0.05,0.56,-2.59,-0.63
-0.15,0.99,-0.05,0.14,-2.45,-0.77
-0.15,0.99,-0.05,0.14,-2.38,-0.84
-0.15,0.99,-0.05,0.21,-2.31,-0.91
-0.15,0.99,-0.05,-0.14,-2.17,-0.91
-0.16,0.99,-0.05,0.07,-2.17,-0.84
-0.15,0.99,-0.05,-0.07,-2.31,-0.91
-0.15,0.99,-0.05,0.07,-2.31,-0.84
-0.16,0.99,-0.05,0.21,-2.38,-0.7
-0.15,0.99,-0.05,0.14,-2.52,-0.7
-0.16,0.99,-0.05,0.21,-2.52,-0.77
-0.15,0.99,-0.05,-0.07,-2.38,-0.84
-0.15,0.99,-0.05,0.21,-2.45,-0.84
-0.15,0.99,-0.05,0.07,-2.45,-0.84
-0.15,0.99,-0.05,0.28,-2.45,-0.84
-0.15,0.99,-0.05,0.49,-2.52,-0.7
-0.15,0.99,-0.05,0.21,-2.31,-0.84
-0.15,0.99,-0.05,0.07,-2.38,-0.77
-0.15,0.99,-0.05,0.14,-2.45,-0.63
-0.15,0.99,-0.05,0.21,-2.31,-0.77
-0.15,0.99,-0.05,0.21,-2.31,-0.77
-0.15,0.99,-0.05,0.21,-2.17,-0.98
-0.16,0.99,-0.05,0.35,-2.38,-0.84
-0.16,0.99,-0.05,0,-2.24,-1.05
-0.16,0.99,-0.05,0.42,-2.66,-0.7
-0.15,0.99,-0.05,0.07,-2.45,-0.7
-0.16,0.99,-0.05,0,-2.31,-0.91
-0.15,0.99,-0.05,0.14,-2.24,-0.91
-0.15,0.99,-0.05,-0.28,-2.17,-0.98
-0.15,0.99,-0.05,0.14,-2.45,-0.84
-0.16,0.99,-0.05,0,-2.45,-0.7
-0.15,0.99,-0.05,-0.28,-2.24,-0.98
-0.15,0.99,-0.05,0.07,-2.52,-1.05
-0.15,0.99,-0.05,0,-2.17,-1.12
-0.15,0.99,-0.05,0,-2.31,-0.98
-0.15,0.99,-0.05,0.21,-2.38,-0.84
-0.15,0.99,-0.05,0.07,-2.24,-0.84
-0.16,0.99,-0.05,0.07,-2.31,-0.91
-0.16,0.99,-0.05,-0.14,-2.1,-0.7
-0.16,0.99,-0.05,0,-2.24,-0.98
-0.16,0.99,-0.05,0.07,-2.17,-0.91
-0.16,0.99,-0.05,-0.07,-2.24,-0.91
-0.15,0.99,-0.05,-0.07,-2.38,-0.84
-0.16,0.99,-0.05,-0.14,-2.24,-0.91
-0.16,0.99,-0.05,0.42,-2.66,-0.77
-0.15,0.99,-0.05,0.35,-2.45,-0.63
-0.16,0.99,-0.05,0.42,-2.45,-0.84
-0.15,0.99,-0.05,0.28,-2.45,-0.63
-0.15,0.99,-0.05,0.21,-2.38,-0.77
-0.15,0.99,-0.05,0.28,-2.45,-0.91
-0.15,0.99,-0.05,0.21,-2.52,-0.91
-0.15,0.99,-0.05,0.07,-2.31,-0.98
-0.15,0.99,-0.06,0.14,-2.38,-0.7
-0.15,0.99,-0.05,0.21,-2.38,-0.7
-0.15,0.99,-0.06,0,-2.24,-0.91
-0.15,0.99,-0.05,-0.14,-2.17,-0.98
-0.15,0.99,-0.05,-0.21,-2.24,-0.98
-0.15,0.99,-0.05,0.07,-2.31,-0.91
-0.15,0.99,-0.05,0.07,-2.31,-0.91
-0.16,0.99,-0.05,-0.07,-2.31,-0.84
-0.15,0.99,-0.05,-0.21,-2.24,-0.91
-0.16,0.99,-0.05,-0.28,-2.24,-0.98
-0.15,0.99,-0.05,0,-2.31,-0.84
-0.16,0.99,-0.05,-0.14,-2.24,-0.91
-0.15,0.99,-0.05,0.07,-2.17,-0.98
-0.15,0.99,-0.05,0.07,-2.38,-0.77
-0.16,0.99,-0.05,0.14,-2.38,-0.84
-0.16,0.99,-0.05,0.07,-2.45,-0.77
-0.16,0.99,-0.05,0.35,-2.52,-0.77
-0.16,0.99,-0.05,0.28,-2.45,-0.91
-0.15,0.99,-0.05,0.35,-2.59,-0.77
-0.15,0.99,-0.05,0.28,-2.45,-0.7
-0.15,0.99,-0.05,0.21,-2.31,-0.84
-0.16,0.99,-0.05,0.07,-2.24,-0.91
-0.15,0.99,-0.05,0.28,-2.38,-0.77
-0.16,0.99,-0.05,0.21,-2.31,-0.77
-0.15,0.99,-0.05,0.21,-2.38,-0.77
-0.15,0.99,-0.05,0.28,-2.24,-0.98
-0.15,0.99,-0.05,0.07,-2.17,-0.98
-0.15,0.99,-0.05,0,-2.31,-0.84
-0.15,0.99,-0.05,0.28,-2.59,-0.7
-0.15,0.99,-0.05,0.14,-2.45,-0.84
-0.16,0.99,-0.05,-0.14,-2.17,-1.12
-0.16,0.99,-0.05,-0.07,-2.24,-0.98
-0.16,0.99,-0.05,-0.07,-2.1,-0.91
-0.16,0.99,-0.05,0,-2.24,-0.98
-0.16,0.99,-0.05,0.14,-2.38,-0.91
-0.15,0.99,-0.05,0,-2.38,-0.84
-0.15,0.99,-0.05,0.14,-2.38,-0.84
-0.16,0.99,-0.05,0.14,-2.45,-0.84
-0.15,0.99,-0.05,0.07,-2.31,-0.7
-0.15,0.99,-0.05,0.07,-2.03,-1.12
-0.15,0.99,-0.05,0.28,-2.38,-0.7
-0.16,0.99,-0.05,0.28,-2.38,-0.77
-0.16,0.99,-0.05,0.42,-2.52,-0.77
-0.15,0.99,-0.05,0.28,-2.52,-0.77
-0.15,0.99,-0.05,0.35,-2.66,-0.98
-0.15,0.99,-0.05,0.28,-2.45,-0.7
-0.16,0.99,-0.05,0.42,-2.59,-0.56
-0.15,0.99,-0.05,0.49,-2.66,-0.63
-0.15,0.99,-0.05,0.21,-2.59,-0.77
-0.15,0.99,-0.05,0.21,-2.52,-0.84
-0.15,0.99,-0.05,0.14,-2.52,-0.63
-0.15,0.99,-0.05,0.21,-2.38,-0.77
-0.15,0.99,-0.05,0.14,-2.31,-0.84
-0.15,0.99,-0.05,0.14,-2.31,-0.98
-0.16,0.99,-0.05,0,-2.31,-0.91
-0.16,0.99,-0.05,0.14,-2.45,-0.7
-0.16,0.99,-0.05,-0.14,-2.24,-0.91
-0.16,0.99,-0.05,0.07,-2.24,-1.05
-0.16,0.99,-0.05,0.14,-2.31,-0.84
-0.16,0.99,-0.05,0,-2.1,-0.98
-0.16,0.99,-0.05,-17.92,-2.24,-0.84
-0.15,0.99,-0.05,-0.07,-2.31,-0.84
-0.15,0.99,-0.05,-0.07,-2.31,-0.84
-0.15,0.99,-0.05,0.14,-2.45,-0.84
-0.16,0.99,-0.05,0,-2.45,-0.84
-0.16,0.99,-0.05,-0.07,-2.31,-0.77
-0.15,0.99,-0.05,0.21,-2.45,-0.84
-0.15,0.99,-0.05,0.35,-2.45,-0.77
-0.15,0.99,-0.05,0.21,-2.31,-0.77
-0.16,0.99,-0.05,0.21,-2.38,-0.84
-0.16,0.99,-0.05,0.21,-2.38,-0.98
-0.16,0.99,-0.05,0.14,-2.31,-0.77
-0.15,0.99,-0.05,0.28,-2.45,-0.84
-0.15,0.99,-0.05,0.42,-2.38,-0.91
-0.15,0.99,-0.05,0.21,-2.38,-0.77
-0.16,0.99,-0.05,0.28,-2.52,-0.7
-0.15,0.99,-0.05,0.14,-2.38,-0.77
-0.16,0.99,-0.05,0.14,-2.24,-0.77
-0.15,0.99,-0.05,0.07,-2.31,-0.7
-0.15,0.99,-0.05,0.07,-2.31,-0.91
-0.15,0.99,-0.05,0.21,-2.31,-0.91
-0.16,0.99,-0.05,-0.07,-2.24,-0.91
-0.15,0.99,-0.05,0.07,-2.45,-0.84
-0.15,0.99,-0.05,0.14,-2.45,-0.84
-0.16,0.99,-0.05,0.14,-2.38,-0.91
-0.15,0.99,-0.05,0.07,-2.38,-0.91
-0.15,0.99,-0.05,0.07,-2.24,-0.91
-0.16,0.99,-0.05,-0.07,-2.24,-0.91
-0.15,0.99,-0.05,0.07,-2.31,-0.84
-0.15,0.99,-0.05,-0.14,-2.17,-0.91
-0.15,0.99,-0.05,0.07,-2.38,-0.84
-0.16,0.99,-0.05,0.07,-2.38,-0.91
-0.15,0.99,-0.05,0.28,-2.17,-0.84
-0.15,0.99,-0.05,0.21,-2.45,-0.7
-0.15,0.99,-0.05,0.07,-2.24,-0.91
-0.16,0.99,-0.05,0.28,-2.38,-0.84
-0.15,0.99,-0.05,0.14,-2.38,-0.84
-0.15,0.99,-0.05,0.07,-2.45,-0.77
-0.15,0.99,-0.05,0.21,-2.31,-0.7
-0.15,0.99,-0.05,0.28,-2.38,-0.7
-0.15,0.99,-0.05,0.07,-2.17,-1.12
-0.15,0.99,-0.05,-0.07,-2.17,-0.98
-0.15,0.99,-0.05,0.14,-2.38,-0.84
-0.15,0.99,-0.05,0.21,-2.38,-0.77
-0.15,0.99,-0.05,0.14,-2.17,-0.77
-0.15,0.99,-0.05,0.14,-2.45,-0.98
-0.16,0.99,-0.05,0.14,-2.24,-0.77
-0.15,0.99,-0.05,0.28,-2.45,-0.77
-0.16,0.99,-0.05,-0.21,-2.17,-0.91
-0.16,0.99,-0.05,0,-2.31,-0.91
-0.16,0.99,-0.05,0.42,-2.52,-0.77
-0.15,0.99,-0.05,0.21,-2.45,-0.91
-0.15,0.99,-0.05,-0.07,-2.24,-0.7
-0.15,0.99,-0.05,0,-2.03,-1.19
-0.15,0.99,-0.05,0.07,-2.38,-0.84
-0.16,0.99,-0.05,0.14,-2.31,-0.77
-0.15,0.99,-0.05,0.14,-2.31,-0.84
-0.15,0.99,-0.05,0.14,-2.31,-0.77
-0.15,0.99,-0.05,0.28,-2.45,-0.7
-0.16,0.99,-0.05,0.28,-2.31,-0.91
-0.16,0.99,-0.05,0.14,-2.52,-0.77
-0.16,0.99,-0.05,-0.14,-2.24,-0.91
-0.15,0.99,-0.05,0.07,-2.45,-0.84
-0.15,0.99,-0.05,0,-2.38,-0.91
-0.15,0.99,-0.05,0.14,-2.45,-0.63
-0.16,0.99,-0.05,0.21,-2.45,-0.91
-0.15,0.99,-0.05,0.28,-2.38,-0.84
-0.16,0.99,-0.05,0.28,-2.31,-0.84
-0.15,0.99,-0.05,0.35,-2.45,-0.63
-0.16,0.99,-0.05,0.21,-2.45,-0.77
-0.15,0.99,-0.05,0.28,-2.38,-0.7
-0.15,0.99,-0.05,0.21,-2.38,-0.77
-0.15,0.99,-0.05,0.14,-2.52,-0.63
-0.15,0.99,-0.05,0.07,-2.24,-0.98
-0.15,0.99,-0.05,-0.07,-2.31,-0.98
-0.16,0.99,-0.05,0.49,-2.52,-0.77
-0.16,0.99,-0.05,0.28,-2.45,-0.77
-0.15,0.99,-0.05,0.14,-2.45,-0.77
-0.16,0.99,-0.05,0,-2.38,-0.84
-0.15,0.99,-0.05,0.07,-2.38,-0.77
-0.15,0.99,-0.05,0.07,-2.45,-0.7
-0.15,0.99,-0.05,0.28,-2.38,-0.77
-0.15,0.99,-0.05,-0.07,-2.24,-0.98
-0.16,0.99,-0.05,0.21,-2.45,-0.77
-0.15,0.99,-0.05,0.21,-2.38,-0.91
-0.15,0.99,-0.05,0.42,-2.52,-0.77
-0.15,0.99,-0.05,0.14,-2.45,-0.7
-0.15,0.99,-0.05,0.28,-2.52,-0.77
-0.15,0.99,-0.05,0.14,-2.38,-0.84
-0.15,0.99,-0.05,0.14,-2.38,-0.84
-0.15,0.99,-0.05,0.35,-2.52,-0.77
-0.15,0.99,-0.05,-0.07,-2.31,-0.77
-0.15,0.99,-0.05,0.28,-2.52,-0.91
-0.15,0.99,-0.05,0,-2.38,-0.84
-0.15,0.99,-0.05,0.35,-2.38,-0.63
-0.15,0.99,-0.05,0.07,-2.38,-0.7
-0.15,0.99,-0.05,0.56,-2.52,-0.56
-0.15,0.99,-0.05,0.21,-2.24,-0.84
-0.16,0.99,-0.05,0.14,-2.24,-0.91
-0.16,0.99,-0.05,0.28,-2.45,-0.84
-0.16,0.99,-0.05,0.14,-2.31,-0.7
-0.16,0.99,-0.05,0.28,-2.45,-0.77
-0.16,0.99,-0.05,0.28,-2.45,-0.77
-0.15,0.99,-0.05,0.21,-2.31,-0.77
-0.15,0.99,-0.05,0.21,-2.52,-0.84
-0.15,0.99,-0.05,0.28,-2.45,-0.77
-0.15,0.99,-0.05,0.21,-2.38,-0.56
-0.15,0.99,-0.05,0.35,-2.52,-0.63
-0.15,0.99,-0.05,0.07,-2.24,-0.84
-0.15,0.99,-0.05,0.21,-2.31,-0.91
-0.15,0.99,-0.05,0,-2.31,-0.84
-0.15,0.99,-0.05,0.21,-2.45,-0.77
-0.15,0.99,-0.05,0.21,-2.38,-0.7
-0.15,0.99,-0.05,0.14,-2.31,-0.84
-0.15,0.99,-0.05,0.28,-2.38,-0.84
-0.15,0.99,-0.05,0.07,-2.24,-0.91
-0.16,0.99,-0.05,0,-2.31,-1.05
-0.16,0.99,-0.05,0.42,-2.59,-0.77
-0.16,0.99,-0.05,0.28,-2.31,-0.84
-0.15,0.99,-0.05,0.14,-2.38,-0.77
-0.15,0.99,-0.05,0,-2.38,-0.91
-0.15,0.99,-0.05,0.07,-2.38,-0.77
-0.15,0.99,-0.05,0.21,-2.52,-0.84
-0.15,0.99,-0.05,0,-2.24,-0.84
-0.15,0.99,-0.05,0.14,-2.24,-0.77
-0.15,0.99,-0.05,0.21,-2.59,-0.7
-0.15,0.99,-0.05,0.28,-2.45,-0.7
-0.15,0.99,-0.05,0.28,-2.59,-0.77
-0.15,0.99,-0.05,0.35,-2.52,-0.91
-0.15,0.99,-0.05,0.21,-2.17,-0.91
-0.15,0.99,-0.05,0.07,-2.24,-0.7
-0.15,0.99,-0.06,0.28,-2.52,-0.84
-0.15,0.99,-0.05,0,-2.17,-0.98
-0.15,0.99,-0.06,0.07,-2.31,-0.84
-0.15,0.99,-0.05,0,-2.24,-0.98
-0.15,0.99,-0.05,-0.21,-2.31,-0.98
-0.16,0.99,-0.05,0.07,-2.45,-0.84
-0.15,0.99,-0.05,0,-2.45,-0.77
-0.15,0.99,-0.05,0,-2.38,-0.77
-0.16,0.99,-0.05,0,-2.31,-0.63
-0.15,0.99,-0.05,0.07,-2.59,-0.56
-0.15,0.99,-0.05,0.21,-2.17,-0.84
-0.16,0.99,-0.05,0.35,-2.45,-0.7
-0.15,0.99,-0.05,0.07,-2.38,-0.77
-0.16,0.99,-0.05,0.14,-2.38,-0.84
-0.15,0.99,-0.05,0.07,-2.38,-0.77
-0.15,0.99,-0.05,0.21,-2.52,-0.84
-0.15,0.99,-0.05,0.07,-2.66,-0.63
-0.15,0.99,-0.05,0.14,-2.59,-0.63
-0.15,0.99,-0.05,0.21,-2.52,-0.84
-0.16,0.99,-0.05,0,-2.38,-0.91
-0.15,0.99,-0.05,0.14,-2.31,-0.84
-0.15,0.99,-0.05,0.14,-2.45,-0.98
-0.15,0.99,-0.05,0.14,-2.52,-0.84
-0.15,0.99,-0.05,0.21,-2.31,-0.84
-0.15,0.99,-0.05,0.28,-2.45,-0.7
-0.15,0.99,-0.05,0.21,-2.24,-0.77
-0.15,0.99,-0.05,0,-2.17,-0.91
-0.16,0.99,-0.05,0.42,-2.59,-0.77
-0.15,0.99,-0.05,-0.07,-2.31,-0.84
-0.16,0.99,-0.05,0.28,-2.31,-0.91
-0.15,0.99,-0.05,0.14,-2.45,-0.7
-0.16,0.99,-0.05,0.14,-2.45,-0.91
-0.15,0.99,-0.05,0.21,-2.52,-0.7
-0.15,0.99,-0.05,0.07,-2.38,-0.91
-0.16,0.99,-0.05,0.14,-2.31,-0.91
-0.15,0.99,-0.05,0.07,-2.31,-0.77
-0.15,0.99,-0.05,0,-2.38,-0.84
-0.15,0.99,-0.05,0.14,-2.38,-0.77
-0.15,0.99,-0.05,0.14,-2.24,-0.77
-0.15,0.99,-0.05,0.07,-2.45,-0.84
-0.16,0.99,-0.05,0.35,-2.52,-0.77
-0.16,0.99,-0.05,0.07,-2.38,-0.91
-0.15,0.99,-0.05,0.14,-2.38,-0.63
-0.15,0.99,-0.05,0.35,-2.52,-1.05
-0.15,0.99,-0.05,0.35,-2.24,-0.98
-0.16,0.99,-0.05,0.28,-2.31,-0.91
-0.15,0.99,-0.05,0.21,-2.38,-0.77
-0.15,0.99,-0.05,0.28,-2.52,-0.77
-0.15,0.99,-0.05,0,-2.45,-0.98
-0.15,0.99,-0.05,0.35,-2.52,-0.7
-0.16,0.99,-0.05,0.07,-2.38,-0.77
-0.15,0.99,-0.05,0.14,-2.31,-0.84
-0.16,0.99,-0.05,0.21,-2.45,-0.77
-0.15,0.99,-0.05,0.14,-2.45,-0.77
-0.16,0.99,-0.05,0.07,-2.24,-0.91
-0.15,0.99,-0.05,0.07,-2.24,-0.91
-0.15,0.99,-0.05,-0.07,-2.24,-0.84
-0.15,0.99,-0.05,0,-2.31,-0.84
-0.16,0.99,-0.05,0.21,-2.31,-0.84
-0.16,0.99,-0.05,-0.14,-2.38,-0.98
-0.16,0.99,-0.05,0.14,-2.38,-0.98
-0.15,0.99,-0.05,0.21,-2.52,-0.77
-0.15,0.99,-0.05,0.21,-2.45,-0.7
-0.16,0.99,-0.05,0.07,-2.38,-0.84
-0.15,0.99,-0.05,0.14,-2.38,-0.91
-0.15,0.99,-0.05,0.07,-2.31,-0.84
-0.15,0.99,-0.05,0.21,-2.52,-0.84
-0.16,0.99,-0.05,0.28,-2.45,-0.91
-0.15,0.99,-0.05,0.07,-2.31,-0.91
-0.16,0.99,-0.05,0.28,-2.45,-0.84
-0.15,0.99,-0.05,0.63,-2.59,-0.49
-0.15,0.99,-0.05,0.14,-2.38,-0.77
-0.15,0.99,-0.05,0,-2.31,-0.84
-0.15,0.99,-0.05,0,-2.31,-0.91
-0.15,0.99,-0.05,0.07,-2.31,-0.91
-0.16,0.99,-0.05,0.35,-2.24,-0.84
-0.15,0.99,-0.05,0.14,-2.24,-0.77
-0.15,0.99,-0.05,0.28,-2.31,-0.77
-0.16,0.99,-0.05,0.07,-2.31,-0.91
-0.16,0.99,-0.05,-0.14,-2.31,-0.91
-0.16,0.99,-0.05,0.28,-2.52,-0.77
-0.16,0.99,-0.05,0.35,-2.66,-0.7
-0.15,0.99,-0.05,0,-2.45,-0.91
-0.16,0.99,-0.05,-0.07,-2.45,-0.84
-0.15,0.99,-0.05,0.21,-2.52,-0.77
-0.16,0.99,-0.05,-0.07,-2.31,-0.84
-0.15,0.99,-0.05,0.21,-2.52,-0.84
-0.16,0.99,-0.05,0.07,-2.38,-0.91
-0.15,0.99,-0.05,0.28,-2.52,-0.77
-0.15,0.99,-0.05,0.14,-2.45,-0.77
-0.15,0.99,-0.05,0.28,-2.31,-0.84
-0.15,0.99,-0.05,0.28,-2.31,-0.77
-0.15,0.99,-0.05,0.21,-2.38,-0.77
-0.15,0.99,-0.05,0.14,-2.45,-0.91
-0.15,0.99,-0.05,0.14,-2.38,-0.63
-0.15,0.99,-0.05,0.21,-2.31,-0.77
-0.15,0.99,-0.05,0.14,-2.31,-0.84
-0.16,0.99,-0.05,0.07,-2.38,-0.84
-0.15,0.99,-0.05,0.14,-2.45,-0.77
-0.15,0.99,-0.05,0.07,-2.38,-0.98
-0.15,0.99,-0.05,0.07,-2.38,-1.19
-0.16,0.99,-0.05,-0.07,-2.38,-0.77
-0.15,0.99,-0.05,-0.14,-2.1,-0.91
-0.15,0.99,-0.05,0.07,-2.31,-0.91
-0.15,0.99,-0.05,0.21,-2.31,-0.77
-0.16,0.99,-0.05,0.14,-2.38,-0.77
-0.16,0.99,-0.05,0.07,-2.31,-0.84
-0.15,0.99,-0.05,0,-2.31,-0.91
-0.16,0.99,-0.05,0,-2.45,-0.77
-0.16,0.99,-0.05,0,-2.38,-0.77
-0.16,0.99,-0.05,0.14,-2.45,-0.7
-0.15,0.99,-0.05,0,-2.38,-0.77
-0.16,0.99,-0.05,0.07,-2.31,-0.91
-0.15,0.99,-0.05,0,-2.24,-0.84
-0.16,0.99,-0.05,0.14,-2.38,-0.63
-0.15,0.99,-0.05,0.14,-2.59,-0.7
-0.15,0.99,-0.05,0.35,-2.45,-0.7
-0.16,0.99,-0.05,0.21,-2.38,-0.84
-0.15,0.99,-0.05,0.28,-2.45,-0.77
-0.15,0.99,-0.05,0.14,-2.45,-0.77
-0.15,0.99,-0.05,0.14,-2.45,-0.77
-0.16,0.99,-0.05,0.07,-2.38,-0.84
-0.16,0.99,-0.05,0.07,-2.38,-0.84
-0.15,0.99,-0.05,0,-2.45,-0.91
-0.15,0.99,-0.05,0.07,-2.38,-0.77
-0.15,0.99,-0.05,0.14,-2.45,-0.84
-0.15,0.99,-0.05,0.07,-2.31,-0.84
-0.15,0.99,-0.05,0.21,-2.45,-0.84
-0.15,0.99,-0.05,0.07,-2.31,-0.84
-0.15,0.99,-0.05,0.14,-2.38,-0.84
-0.15,0.99,-0.05,0.28,-2.38,-0.77
-0.15,0.99,-0.05,0.14,-2.45,-0.77
-0.15,0.99,-0.05,0,-2.31,-0.84
-0.15,0.99,-0.05,0.35,-2.52,-0.91
-0.15,0.99,-0.05,0,-2.31,-0.84
-0.16,0.99,-0.05,0.14,-2.31,-0.91
-0.15,0.99,-0.05,0.14,-2.38,-0.91
-0.16,0.99,-0.05,0.14,-2.38,-0.91
-0.16,0.99,-0.05,0.28,-2.38,-0.7
-0.16,0.99,-0.05,0.14,-2.38,-0.84
-0.16,0.99,-0.05,0.14,-2.38,-0.91
-0.15,0.99,-0.05,0.07,-2.31,-0.84
-0.15,0.99,-0.05,0,-2.52,-0.7
-0.15,0.99,-0.05,0.14,-2.38,-0.77
-0.15,0.99,-0.05,-0.21,-2.17,-0.91
-0.15,0.99,-0.05,0,-2.31,-0.84
-0.15,0.99,-0.05,0.14,-2.38,-0.98
-0.15,0.99,-0.05,0.07,-2.38,-0.77
-0.15,0.99,-0.05,0,-2.38,-0.63
-0.16,0.99,-0.05,0.07,-2.38,-0.84
-0.16,0.99,-0.05,-0.07,-2.31,-0.84
-0.16,0.99,-0.05,0,-2.38,-0.84
-0.15,0.99,-0.05,0,-2.38,-0.84
-0.16,0.99,-0.05,0.35,-2.52,-0.63
-0.16,0.99,-0.05,0.07,-2.38,-0.91
-0.15,0.99,-0.05,0.21,-2.59,-0.63
-0.15,0.99,-0.05,0.07,-2.38,-0.84
-0.16,0.99,-0.05,0.28,-2.38,-0.77
-0.16,0.99,-0.05,0.21,-2.31,-0.77
-0.15,0.99,-0.05,0.21,-2.45,-0.77
-0.16,0.99,-0.05,0.21,-2.45,-0.91
-0.15,0.99,-0.05,0.07,-2.38,-0.91
-0.15,0.99,-0.05,0.28,-2.31,-0.77
-0.15,0.99,-0.05,0.28,-2.31,-0.7
-0.15,0.99,-0.05,0.21,-2.45,-0.84
-0.15,0.99,-0.05,0,-2.24,-0.84
-0.15,0.99,-0.05,-0.07,-2.31,-0.91
-0.16,0.99,-0.05,0.07,-2.31,-0.84
-0.15,0.99,-0.05,0.07,-2.24,-0.84
-0.15,0.99,-0.05,0.21,-2.31,-0.84
-0.16,0.99,-0.05,0.14,-2.59,-0.77
-0.16,0.99,-0.05,0.21,-2.45,-0.7
-0.15,0.99,-0.05,0.21,-2.45,-0.77
-0.16,0.99,-0.05,0,-2.31,-0.91
-0.15,0.99,-0.05,0.14,-2.45,-0.63
-0.15,0.99,-0.05,0.14,-2.45,-0.77
-0.15,0.99,-0.05,0.07,-2.45,-0.63
-0.15,0.99,-0.05,0.14,-2.38,-0.77
-0.16,0.99,-0.05,0.07,-2.31,-0.91
-0.15,0.99,-0.05,0.21,-2.38,-0.84
-0.15,0.99,-0.05,0.07,-2.38,-0.91
-0.15,0.99,-0.05,0.21,-2.45,-0.77
-0.16,0.99,-0.05,0.14,-2.52,-0.7
-0.15,0.99,-0.05,0.07,-2.31,-0.91
-0.15,0.99,-0.05,-0.28,-2.17,-0.98
-0.16,0.99,-0.05,0,-2.31,-0.98
-0.15,0.99,-0.05,0.14,-2.31,-0.84
-0.15,0.99,-0.05,0.07,-2.38,-0.77
-0.15,0.99,-0.05,0,-2.45,-0.7
-0.16,0.99,-0.05,-0.07,-2.31,-1.05
-0.16,0.99,-0.05,0.07,-2.38,-0.91
-0.16,0.99,-0.05,0.35,-2.66,-0.77
-0.15,0.99,-0.05,0.14,-2.52,-0.84
-0.15,0.99,-0.05,0.28,-2.52,-0.84
-0.15,0.99,-0.05,0.28,-2.59,-0.56
-0.15,0.99,-0.05,0.14,-2.17,-1.05
-0.15,0.99,-0.05,0.21,-2.31,-0.77
-0.15,0.99,-0.05,0.07,-2.31,-0.91
-0.16,0.99,-0.05,0.14,-2.17,-0.98
-0.15,0.99,-0.05,0.07,-2.24,-0.84
-0.15,0.99,-0.05,0.28,-2.38,-0.77
-0.16,0.99,-0.05,0,-2.24,-0.84
-0.15,0.99,-0.05,0.28,-2.31,-0.84
-0.16,0.99,-0.05,0.21,-2.38,-0.77
-0.16,0.99,-0.05,0.21,-2.31,-0.77
-0.15,0.99,-0.05,0.21,-2.45,-0.7
-0.16,0.99,-0.05,0.21,-2.31,-0.84
-0.15,0.99,-0.05,0.14,-2.45,-0.98
-0.15,0.99,-0.05,0.21,-2.45,-0.98
-0.15,0.99,-0.05,0.14,-2.59,-0.7
-0.15,0.99,-0.05,0.14,-2.38,-0.84
-0.15,0.99,-0.05,0.14,-2.38,-0.7
-0.15,0.99,-0.05,0.07,-2.45,-0.84
-0.15,0.99,-0.05,0,-2.24,-0.84
-0.15,0.99,-0.05,-0.07,-2.17,-0.98
-0.15,0.99,-0.05,0.07,-2.31,-0.63
-0.16,0.99,-0.05,0,-2.17,-0.91
-0.15,0.99,-0.05,0.14,-2.38,-0.77
-0.16,0.99,-0.05,0.07,-2.31,-0.84
-0.16,0.99,-0.05,0.35,-2.38,-0.77
-0.16,0.99,-0.05,0.28,-2.52,-0.77
-0.16,0.99,-0.05,0.14,-2.52,-0.7
-0.15,0.99,-0.05,0.14,-2.31,-0.91
-0.15,0.99,-0.05,0.21,-2.52,-0.77
-0.15,0.99,-0.05,0.21,-2.31,-0.77
-0.15,0.99,-0.05,0.28,-2.59,-0.63
-0.15,0.99,-0.05,0.21,-2.45,-0.84
-0.15,0.99,-0.05,0.35,-2.52,-0.77
-0.16,0.99,-0.05,0.21,-2.38,-0.91
-0.16,0.99,-0.05,0.14,-2.38,-0.84
-0.15,0.99,-0.05,0.21,-2.17,-0.91
-0.16,0.99,-0.05,0.21,-2.24,-0.84
-0.15,0.99,-0.05,0.21,-2.38,-0.91
-0.16,0.99,-0.05,0.42,-2.52,-0.56
-0.16,0.99,-0.05,0.21,-2.38,-0.84
-0.15,0.99,-0.05,0.14,-2.31,-0.63
-0.15,0.99,-0.05,0.07,-2.24,-0.98
-0.15,0.99,-0.05,0.21,-2.38,-0.77
-0.16,0.99,-0.05,0.21,-2.38,-0.77
-0.15,0.99,-0.05,0.07,-2.31,-0.77
-0.15,0.99,-0.05,0.14,-2.38,-0.84
-0.15,0.99,-0.05,0.35,-2.52,-0.91
-0.16,0.99,-0.05,0.21,-2.24,-0.91
-0.15,0.99,-0.05,0.14,-2.45,-0.7
-0.15,0.99,-0.05,0.28,-2.38,-0.77
-0.15,0.99,-0.05,0.07,-2.17,-0.84
-0.15,0.99,-0.05,0.28,-2.31,-0.77
-0.15,0.99,-0.05,0.14,-2.38,-0.91
-0.16,0.99,-0.05,0.14,-2.24,-0.7
-0.16,0.99,-0.05,0.21,-2.31,-0.84
-0.16,0.99,-0.05,0.14,-2.38,-0.77
-0.16,0.99,-0.05,0,-2.31,-0.77
-0.15,0.99,-0.05,0.21,-2.45,-0.7
-0.15,0.99,-0.05,0.42,-2.52,-0.7
-0.16,0.99,-0.05,0.21,-2.45,-0.56
-0.15,0.99,-0.05,0.35,-2.24,-0.98
-0.15,0.99,-0.05,0.28,-2.59,-0.84
-0.16,0.99,-0.05,0.21,-2.45,-0.84
-0.16,0.99,-0.05,0.28,-2.59,-0.77
-0.16,0.99,-0.05,0.14,-2.45,-0.84
-0.15,0.99,-0.05,0.14,-2.52,-0.77
-0.15,0.99,-0.05,0.07,-2.38,-0.91
-0.15,0.99,-0.05,0.21,-2.59,-0.56
-0.15,0.99,-0.05,0.14,-2.17,-0.91
-0.15,0.99,-0.05,0.21,-2.31,-0.77
-0.15,0.99,-0.05,0.14,-2.38,-0.84
-0.15,0.99,-0.05,0.35,-2.45,-0.7
-0.15,0.99,-0.05,-0.07,-2.24,-0.63
-0.15,0.99,-0.05,0.14,-2.38,-0.63
-0.15,0.99,-0.05,0.28,-2.45,-0.7
-0.16,0.99,-0.05,0.14,-2.31,-0.84
-0.15,0.99,-0.05,0.07,-2.38,-0.91
-0.16,0.99,-0.05,0.28,-2.38,-0.77
-0.16,0.99,-0.05,0.28,-2.38,-0.77
-0.15,0.99,-0.05,0.21,-2.45,-0.98
-0.16,0.99,-0.05,0,-2.31,-0.91
-0.16,0.99,-0.05,0.07,-2.17,-1.05
-0.15,0.99,-0.05,0.28,-2.24,-0.84
-0.16,0.99,-0.05,0.28,-2.31,-0.63
-0.16,0.99,-0.05,0.35,-2.38,-0.77
-0.15,0.99,-0.05,0.35,-2.31,-0.63
-0.16,0.99,-0.05,0.28,-2.38,-0.84
-0.16,0.99,-0.05,0.49,-2.31,-0.84
-0.15,0.99,-0.05,0.42,-2.52,-0.7
-0.16,0.99,-0.05,0.21,-2.38,-0.84
-0.16,0.99,-0.05,0.42,-2.59,-0.77
-0.15,0.99,-0.06,0,-2.31,-0.91
-0.15,0.99,-0.06,0.21,-2.38,-0.84
-0.15,0.99,-0.05,0.35,-2.45,-0.91
-0.15,0.99,-0.05,0.07,-2.1,-0.98
-0.15,0.99,-0.05,-17.64,-2.17,-0.91
-0.16,0.99,-0.05,0.21,-2.24,-0.63
-0.15,0.99,-0.05,-0.28,-2.17,-0.91
-0.15,0.99,-0.05,-0.07,-2.31,-0.91
-0.16,0.99,-0.05,0.14,-2.31,-0.84
-0.15,0.99,-0.05,0.14,-2.45,-0.84
-0.15,0.99,-0.05,0.07,-2.38,-0.77
-0.15,0.99,-0.05,0.21,-2.52,-0.84
-0.15,0.99,-0.05,0.07,-2.38,-0.84
-0.15,0.99,-0.05,0.07,-2.38,-0.77
-0.15,0.99,-0.05,0,-2.31,-0.98
-0.15,0.99,-0.05,0.28,-2.45,-0.84
-0.16,0.99,-0.05,0.14,-2.17,-0.98
-0.16,0.99,-0.05,0.28,-2.59,-0.63
-0.15,0.99,-0.05,0.21,-2.24,-0.91
-0.15,0.99,-0.05,0.14,-2.45,-0.77
-0.16,0.99,-0.05,0.21,-2.31,-0.77
-0.15,0.99,-0.05,0.14,-2.52,-0.7
-0.16,0.99,-0.05,0.14,-2.31,-0.77
-0.15,0.99,-0.05,0.14,-2.38,-0.77
-0.15,0.99,-0.05,0.28,-2.45,-0.7
-0.15,0.99,-0.05,0.28,-2.45,-0.7
-0.16,0.99,-0.05,-0.07,-2.24,-0.84
-0.15,0.99,-0.05,0.35,-2.45,-0.77
-0.15,0.99,-0.05,0.28,-2.45,-0.77
-0.15,0.99,-0.05,0.28,-2.38,-0.77
-0.15,0.99,-0.05,0.21,-2.31,-0.84
-0.15,0.99,-0.05,0.07,-2.31,-0.91
-0.15,0.99,-0.05,0.28,-2.45,-0.84
-0.16,0.99,-0.05,0.21,-2.17,-0.7
-0.16,0.99,-0.05,0.42,-2.31,-0.77
-0.16,0.99,-0.05,0.28,-2.38,-0.84
-0.15,0.99,-0.05,0.21,-2.45,-0.98
-0.16,0.99,-0.06,-0.14,-2.31,-0.91
-0.16,0.99,-0.05,-0.14,-2.45,-0.91
-0.15,0.99,-0.05,0.07,-2.66,-0.84
-0.15,0.99,-0.05,0.14,-2.52,-0.77
-0.15,0.99,-0.05,-0.07,-2.38,-0.91
-0.15,0.99,-0.05,0,-2.38,-0.7
-0.15,0.99,-0.05,0.14,-2.38,-0.7
-0.16,0.99,-0.05,0.21,-2.52,-0.7
-0.16,0.99,-0.06,0.07,-2.31,-0.84
-0.16,0.99,-0.05,0.28,-2.52,-0.7
-0.15,0.99,-0.05,0,-2.31,-0.84
-0.16,0.99,-0.05,0.07,-2.45,-0.7
-0.16,0.99,-0.05,0.14,-2.45,-0.91
-0.15,0.99,-0.05,-0.07,-2.52,-0.84
-0.15,0.99,-0.05,0.28,-2.38,-0.77
-0.15,0.99,-0.05,0.49,-2.52,-0.63
-0.15,0.99,-0.05,0.07,-2.38,-0.84
-0.16,0.99,-0.05,0.07,-2.38,-0.91
-0.15,0.99,-0.05,0,-2.24,-0.91
-0.15,0.99,-0.05,0.35,-2.45,-0.77
-0.15,0.99,-0.05,0.07,-2.38,-0.7
-0.15,0.99,-0.05,0.28,-2.45,-0.7
-0.15,0.99,-0.05,-0.14,-2.24,-0.91
-0.16,0.99,-0.05,-0.07,-2.31,-0.91
-0.15,0.99,-0.05,0.14,-2.38,-1.05
-0.15,0.99,-0.05,0.14,-2.38,-0.77
-0.16,0.99,-0.05,0.07,-2.45,-0.63
-0.15,0.99,-0.05,0.21,-2.38,-0.84
-0.15,0.99,-0.05,0,-2.38,-0.91
-0.15,0.99,-0.05,0,-2.38,-0.91
-0.15,0.99,-0.05,0.21,-2.45,-0.84
-0.15,0.99,-0.05,0.14,-2.31,-0.91
-0.16,0.99,-0.05,0.21,-2.45,-0.7
-0.15,0.99,-0.05,0.14,-2.17,-0.91
-0.16,0.99,-0.05,-17.92,-2.17,-0.98
-0.16,0.99,-0.05,0.28,-2.45,-0.63
-0.16,0.99,-0.05,0.14,-2.45,-0.77
-0.16,0.99,-0.05,0.14,-2.52,-0.84
-0.15,0.99,-0.05,0.21,-2.52,-0.77
-0.15,0.99,-0.05,0,-2.31,-0.91
-0.15,0.99,-0.05,0.14,-2.45,-0.77
-0.15,0.99,-0.05,0.21,-2.38,-0.77
-0.15,0.99,-0.05,0.14,-2.38,-0.77
-0.16,0.99,-0.05,0.28,-2.31,-0.91
-0.15,0.99,-0.05,0.07,-2.38,-0.77
-0.15,0.99,-0.05,-0.07,-2.31,-0.84
-0.15,0.99,-0.05,0.21,-2.45,-0.91
-0.16,0.99,-0.05,0.14,-2.45,-0.63
-0.15,0.99,-0.05,0.07,-2.03,-0.91
-0.15,0.99,-0.05,0.07,-2.31,-0.91
-0.16,0.99,-0.05,-0.14,-2.24,-0.98
-0.15,0.99,-0.05,0.07,-2.38,-0.84
-0.16,0.99,-0.05,0.14,-2.38,-0.91
-0.15,0.99,-0.05,0,-2.31,-0.84
-0.15,0.99,-0.05,-0.07,-2.31,-0.98
-0.15,0.99,-0.05,0.28,-2.38,-0.84
-0.15,0.99,-0.05,0.35,-2.45,-0.7
-0.16,0.99,-0.05,0.07,-2.24,-0.77
-0.16,0.99,-0.05,0.14,-2.31,-0.84
-0.15,0.99,-0.05,-0.07,-2.17,-0.84
-0.16,0.99,-0.05,0.42,-2.52,-0.7
-0.15,0.99,-0.05,0.21,-2.31,-0.7
-0.16,0.99,-0.05,0.21,-2.24,-0.91
-0.16,0.99,-0.05,0.14,-2.45,-0.84
-0.16,0.99,-0.05,0.21,-2.59,-0.84
-0.15,0.99,-0.05,0.35,-2.59,-0.77
-0.15,0.99,-0.05,0.07,-2.38,-0.91
-0.15,0.99,-0.05,0.35,-2.59,-0.7
-0.15,0.99,-0.05,0.14,-2.52,-0.77
-0.15,0.99,-0.05,0,-2.31,-0.91
-0.15,0.99,-0.05,0.14,-2.45,-0.7
-0.16,0.99,-0.05,0.07,-2.45,-0.91
-0.15,0.99,-0.05,0.35,-2.31,-0.84
-0.16,0.99,-0.05,0.07,-2.31,-0.84
-0.16,0.99,-0.05,-0.07,-2.24,-0.84
-0.16,0.99,-0.05,0.14,-2.31,-0.84
-0.15,0.99,-0.05,0.14,-2.24,-0.7
-0.15,0.99,-0.05,0.07,-2.45,-0.84
-0.15,0.99,-0.05,0.49,-2.31,-0.7
-0.15,0.99,-0.05,0,-2.31,-0.91
-0.16,0.99,-0.05,0.21,-2.52,-0.77
-0.16,0.99,-0.05,0.14,-2.59,-0.84
-0.15,0.99,-0.05,0.21,-2.45,-0.77
-0.16,0.99,-0.05,-0.07,-2.31,-0.77
-0.15,0.99,-0.05,0.07,-2.45,-0.91
-0.16,0.99,-0.05,0.07,-2.31,-0.91
-0.16,0.99,-0.05,0.28,-2.24,-0.91
-0.15,0.99,-0.05,0,-2.17,-0.91
-0.15,0.99,-0.05,0.28,-2.31,-0.84
-0.15,0.99,-0.05,-0.07,-2.31,-0.91
-0.16,0.99,-0.05,0,-2.38,-0.91
-0.15,0.99,-0.05,0.14,-2.45,-0.7
-0.16,0.99,-0.05,0.14,-2.38,-0.84
-0.15,0.99,-0.05,0,-2.31,-0.77
-0.15,0.99,-0.05,0.21,-2.52,-0.77
-0.16,0.99,-0.05,0.14,-2.45,-0.77
-0.15,0.99,-0.05,0.14,-2.45,-0.63
-0.16,0.99,-0.05,0,-2.31,-0.84
-0.16,0.99,-0.05,0.42,-2.31,-0.84
-0.15,0.99,-0.05,0.21,-2.52,-0.63
-0.16,0.99,-0.05,0.07,-2.38,-0.84
-0.15,0.99,-0.05,0.35,-2.66,-0.63
-0.15,0.99,-0.05,0.07,-2.45,-0.77
-0.15,0.99,-0.05,-0.14,-2.24,-0.91
-0.16,0.99,-0.05,0,-2.38,-0.84
-0.15,0.99,-0.05,0.21,-2.38,-0.84
-0.15,0.99,-0.05,0.07,-2.31,-0.84
-0.16,0.99,-0.05,0,-2.24,-0.84
-0.16,0.99,-0.05,0.35,-2.52,-0.7
-0.15,0.99,-0.05,0.21,-2.31,-0.84
-0.16,0.99,-0.05,0.21,-2.31,-0.84
-0.15,0.99,-0.05,0.07,-2.38,-0.91
-0.15,0.99,-0.05,0.21,-2.45,-0.91
-0.15,0.99,-0.05,0.35,-2.59,-0.63
-0.15,0.99,-0.05,0,-2.45,-0.77
-0.15,0.99,-0.05,0.07,-2.38,-0.84
-0.15,0.99,-0.05,0,-2.24,-0.84
-0.16,0.99,-0.05,0,-2.38,-0.77
-0.15,0.99,-0.05,0.21,-2.31,-0.91
-0.15,0.99,-0.05,0.14,-2.38,-0.63
-0.16,0.99,-0.05,0.14,-2.17,-0.84
-0.15,0.99,-0.05,0.21,-2.38,-0.84
-0.16,0.99,-0.05,0.07,-2.38,-0.91
-0.15,0.99,-0.05,0.14,-2.45,-0.7
-0.16,0.99,-0.05,0.07,-2.52,-0.77
-0.15,0.99,-0.05,0.07,-2.52,-0.56
-0.15,0.99,-0.05,0.21,-2.45,-0.84
-0.15,0.99,-0.05,-0.07,-2.38,-0.84
-0.16,0.99,-0.05,-0.14,-2.24,-0.98
-0.15,0.99,-0.05,-0.07,-2.31,-0.98
-0.15,0.99,-0.05,0.14,-2.45,-0.84
-0.15,0.99,-0.05,0.07,-2.31,-0.7
-0.16,0.99,-0.05,0.21,-2.31,-0.91
-0.16,0.99,-0.05,0.14,-2.38,-0.77
-0.15,0.99,-0.05,0,-2.31,-0.84
-0.15,0.99,-0.05,0.14,-2.38,-0.7
-0.16,0.99,-0.05,0,-2.38,-0.98
-0.15,0.99,-0.05,0.35,-2.59,-0.63
-0.15,0.99,-0.05,0,-2.31,-0.84
-0.15,0.99,-0.05,0.42,-2.45,-0.77
-0.15,0.99,-0.05,0.35,-2.38,-0.84
-0.15,0.99,-0.05,0.49,-2.59,-0.63
-0.15,0.99,-0.05,0.07,-2.31,-0.91
-0.15,0.99,-0.05,0.28,-2.45,-0.63
-0.15,0.99,-0.05,0.07,-2.31,-0.7
-0.16,0.99,-0.05,-0.07,-2.17,-0.91
-0.15,0.99,-0.05,0.14,-2.24,-0.91
-0.16,0.99,-0.05,-0.07,-2.31,-0.91
-0.16,0.99,-0.05,0.07,-2.24,-0.77
-0.15,0.99,-0.05,-0.07,-2.24,-0.84
-0.15,0.99,-0.05,0.14,-2.31,-0.77
-0.15,0.99,-0.05,0.07,-2.45,-0.98
-0.16,0.99,-0.05,0.21,-2.17,-0.91
-0.15,0.99,-0.05,0.21,-2.31,-0.91
-0.16,0.99,-0.05,0.14,-2.45,-0.84
-0.15,0.99,-0.05,-0.07,-2.31,-0.91
-0.16,0.99,-0.05,0.07,-2.45,-0.91
-0.15,0.99,-0.05,-0.28,-2.17,-0.91
-0.15,0.99,-0.05,0.07,-2.66,-0.63
-0.16,0.99,-0.05,0,-2.52,-0.7
-0.15,0.99,-0.05,0,-2.31,-0.84
-0.15,0.99,-0.05,0,-2.24,-0.84
-0.15,0.99,-0.05,-0.07,-2.24,-0.91
-0.15,0.99,-0.05,-0.07,-2.03,-0.7
-0.16,0.99,-0.05,0.14,-2.24,-0.77
-0.15,0.99,-0.05,0,-1.96,-1.05
-0.16,0.99,-0.05,0,-2.31,-0.84
-0.16,0.99,-0.05,0,-2.24,-0.84
-0.16,0.99,-0.05,0.28,-2.59,-0.7
-0.16,0.99,-0.05,-0.21,-2.38,-0.91
-0.16,0.99,-0.05,-0.28,-2.45,-1.19
-0.15,0.99,-0.05,-0.14,-2.59,-0.77
-0.15,0.99,-0.05,-0.21,-2.59,-0.77
-0.15,0.99,-0.05,17.85,-2.59,-0.77
-0.15,0.99,-0.05,-0.21,-2.24,-0.84
-0.15,0.99,-0.05,-0.14,-2.31,-0.84
-0.15,0.99,-0.05,-0.35,-2.03,-0.98
-0.16,0.99,-0.05,-0.14,-2.1,-0.98
-0.15,0.99,-0.05,-0.07,-2.24,-0.91
-0.16,0.99,-0.05,-0.07,-2.1,-1.05
-0.16,0.99,-0.05,0,-2.38,-0.84
-0.16,0.99,-0.05,0.07,-2.38,-0.84
-0.15,0.99,-0.05,-0.07,-2.45,-0.84
-0.16,0.99,-0.05,0.14,-2.45,-0.91
-0.15,0.99,-0.05,0.14,-2.45,-1.05
-0.16,0.99,-0.05,0,-2.52,-0.77
-0.16,0.99,-0.05,0.14,-2.17,-0.91
-0.15,0.99,-0.05,0.21,-2.24,-0.77
-0.16,0.99,-0.05,0.35,-2.24,-0.84
-0.16,0.99,-0.05,0.07,-2.17,-0.84
-0.16,0.99,-0.05,-0.14,-2.1,-1.05
-0.15,0.99,-0.05,0.07,-2.31,-0.84
-0.15,0.99,-0.05,0,-2.17,-0.84
-0.16,0.99,-0.05,-0.07,-2.24,-0.84
-0.15,0.99,-0.05,0.21,-2.52,-0.7
-0.16,0.99,-0.05,0.07,-2.38,-0.84
-0.16,0.99,-0.05,-0.14,-2.38,-0.98
-0.15,0.99,-0.05,-0.14,-2.38,-0.77
-0.15,0.99,-0.05,0,-2.52,-0.77
-0.15,0.99,-0.05,0.21,-2.31,-0.91
-0.15,0.99,-0.05,0.35,-2.52,-0.63
-0.15,0.99,-0.05,0,-2.24,-0.84
-0.15,0.99,-0.05,0.21,-2.38,-0.77
-0.16,0.99,-0.05,0,-2.31,-1.05
-0.15,0.99,-0.05,-0.14,-2.24,-1.05
-0.15,0.99,-0.05,-0.28,-2.38,-0.77
-0.15,0.99,-0.05,-0.35,-2.38,-0.84
-0.15,0.99,-0.05,-0.49,-2.24,-1.05
-0.16,0.99,-0.05,-0.49,-2.38,-1.05
-0.15,0.99,-0.05,-0.35,-2.31,-0.91
-0.16,0.99,-0.05,-0.21,-2.31,-0.63
-0.16,0.99,-0.05,-0.42,-2.24,-0.7
-0.16,0.99,-0.05,-0.21,-2.24,-0.84
-0.15,0.99,-0.05,-0.21,-2.03,-1.26
-0.16,0.99,-0.05,-0.14,-2.31,-0.91
-0.15,0.99,-0.05,-0.07,-2.31,-0.98
-0.15,0.99,-0.05,0,-2.31,-0.77
-0.16,0.99,-0.05,0.07,-2.24,-1.05
-0.15,0.99,-0.05,0.14,-2.31,-0.77
-0.15,0.99,-0.05,0.49,-2.38,-0.77
-0.16,0.99,-0.05,0.77,-2.52,-0.84
-0.16,0.99,-0.05,0.63,-2.66,-0.77
-0.16,0.99,-0.05,0.56,-2.73,-0.77
-0.16,0.99,-0.05,0.42,-2.73,-0.77
-0.15,0.99,-0.05,0.35,-2.59,-0.63
-0.15,0.99,-0.05,0.56,-2.73,-0.84
-0.15,0.99,-0.05,0.49,-2.73,-0.63
-0.15,0.99,-0.05,0.42,-2.45,-0.7
-0.15,0.99,-0.05,0.21,-2.31,-0.91
-0.15,0.99,-0.05,0.14,-2.24,-0.91
-0.15,0.99,-0.05,0.35,-2.31,-0.63
-0.16,0.99,-0.05,0.28,-2.38,-1.05
-0.15,0.99,-0.05,0.35,-2.24,-0.91
-0.16,0.99,-0.05,0.21,-2.1,-0.91
-0.16,0.99,-0.05,0.21,-2.31,-0.7
-0.15,0.99,-0.05,0,-2.24,-0.84
-0.15,0.99,-0.05,0.21,-2.38,-0.77
-0.15,0.99,-0.05,-0.07,-2.31,-1.05
-0.15,0.99,-0.05,0.21,-2.45,-1.12
-0.15,0.99,-0.05,-0.07,-2.45,-0.7
-0.16,0.99,-0.05,17.85,-2.45,-0.91
-0.16,0.99,-0.05,-0.07,-2.52,-0.91
-0.16,0.99,-0.05,-0.35,-2.31,-1.05
-0.15,0.99,-0.05,0.07,-2.38,-0.98
-0.16,0.99,-0.05,-0.21,-2.31,-0.84
-0.15,0.99,-0.05,-0.14,-2.31,-0.77
-0.15,0.99,-0.05,0.21,-2.24,-0.91
-0.16,0.99,-0.05,0.07,-2.17,-0.91
-0.16,0.99,-0.05,0.42,-2.45,-0.7
-0.15,0.99,-0.05,0.28,-2.24,-0.84
-0.16,0.99,-0.05,0.35,-2.38,-0.84
-0.16,0.99,-0.05,0.28,-2.52,-0.84
-0.16,0.99,-0.05,0,-2.1,-0.91
-0.16,0.99,-0.05,0,-2.31,-0.98
-0.16,0.99,-0.05,-0.14,-2.45,-0.91
-0.16,0.99,-0.05,0,-2.52,-0.84
-0.16,0.99,-0.05,-0.14,-2.31,-0.98
-0.16,0.99,-0.05,-0.14,-2.38,-0.91
-0.16,0.99,-0.05,0,-2.38,-0.98
-0.16,0.99,-0.05,-0.14,-2.31,-0.77
-0.15,0.99,-0.05,-0.07,-2.17,-0.91
-0.16,0.99,-0.05,-0.14,-2.17,-0.84
-0.15,0.99,-0.05,0,-2.24,-0.91
-0.15,0.99,-0.05,0,-2.1,-0.91
-0.15,0.99,-0.05,0.07,-2.17,-0.98
-0.16,0.99,-0.05,0.07,-2.38,-0.84
-0.16,0.99,-0.05,0.07,-2.31,-1.05
-0.16,0.99,-0.05,0,-2.52,-0.91
-0.15,0.99,-0.05,-0.07,-2.45,-0.91
-0.16,0.99,-0.05,0.35,-2.66,-0.63
-0.16,0.99,-0.05,0.21,-2.59,-0.77
-0.16,0.99,-0.05,0.07,-2.45,-0.77
-0.16,0.99,-0.05,-0.14,-2.38,-0.91
-0.15,0.99,-0.05,0.07,-2.38,-0.7
-0.15,0.99,-0.05,0.14,-2.38,-0.84
-0.15,0.99,-0.05,0.14,-2.38,-0.91
-0.15,0.99,-0.05,0.07,-2.24,-0.98
-0.16,0.99,-0.05,0.21,-2.24,-0.77
-0.16,0.99,-0.05,0.21,-2.24,-0.7
-0.16,0.99,-0.05,0.35,-2.31,-0.77
-0.16,0.99,-0.05,0.28,-2.52,-0.56
-0.16,0.99,-0.05,0.07,-2.24,-0.84
-0.16,0.99,-0.05,0.21,-2.31,-0.84
-0.16,0.99,-0.05,0,-2.24,-0.91
-0.16,0.99,-0.05,0,-2.38,-0.98
-0.15,0.99,-0.05,-0.21,-2.24,-1.19
-0.16,0.99,-0.05,-0.07,-2.31,-0.77
-0.16,0.99,-0.05,-17.92,-2.17,-0.98
-0.16,0.99,-0.05,0.28,-2.45,-0.56
-0.16,0.99,-0.05,0,-2.45,-0.84
-0.16,0.99,-0.05,-0.21,-2.24,-0.98
-0.16,0.99,-0.05,0.07,-2.52,-0.98
-0.16,0.99,-0.05,0.28,-2.52,-0.7
-0.15,0.99,-0.05,0.07,-2.45,-0.7
-0.15,0.99,-0.05,0.35,-2.52,-0.7
-0.15,0.99,-0.05,0.21,-2.45,-0.84
-0.15,0.99,-0.05,0.35,-2.45,-0.77
-0.16,0.99,-0.05,0.35,-2.38,-0.84
-0.15,0.99,-0.05,0.49,-2.45,-0.63
-0.15,0.99,-0.05,0.7,-2.38,-0.91
-0.15,0.99,-0.05,0.49,-2.52,-0.7
-0.16,0.99,-0.05,0.35,-2.38,-0.77
-0.15,0.99,-0.05,0.42,-2.38,-0.77
-0.16,0.99,-0.05,0.42,-2.38,-0.77
-0.15,0.99,-0.05,0.56,-2.52,-0.91
-0.16,0.99,-0.05,0.42,-2.45,-0.49
-0.16,0.99,-0.05,0.49,-2.52,-0.63
-0.16,0.99,-0.05,0.28,-2.38,-0.77
-0.16,0.99,-0.05,0.42,-2.52,-0.63
-0.16,0.99,-0.05,0.28,-2.45,-0.77
-0.15,0.99,-0.05,0.28,-2.38,-0.77
-0.16,0.99,-0.05,0.49,-2.59,-0.77
-0.15,0.99,-0.05,0.49,-2.45,-0.63
-0.16,0.99,-0.05,0.28,-2.38,-0.84
-0.16,0.99,-0.05,0.21,-2.45,-0.77
-0.15,0.99,-0.05,0.28,-2.45,-0.77
-0.15,0.99,-0.05,0.14,-2.38,-0.84
-0.16,0.99,-0.05,0.42,-2.52,-0.77
-0.15,0.99,-0.05,0.14,-2.52,-0.84
-0.15,0.99,-0.05,0.07,-2.45,-0.63
-0.15,0.99,-0.05,0.28,-2.45,-0.77
-0.15,0.99,-0.05,0.35,-2.38,-0.77
-0.15,0.99,-0.05,0.21,-2.38,-0.91
-0.15,0.99,-0.05,0,-2.24,-0.77
-0.15,0.99,-0.05,0.21,-2.45,-0.98
-0.16,0.99,-0.05,-0.07,-2.38,-0.56
-0.16,0.99,-0.05,0.14,-2.38,-0.77
-0.15,0.99,-0.05,0.28,-2.66,-0.7
-0.16,0.99,-0.05,0.14,-2.45,-0.84
-0.16,0.99,-0.05,0.07,-2.38,-0.84
-0.15,0.99,-0.05,0,-2.24,-0.84
-0.15,0.99,-0.05,0.07,-2.24,-0.84
-0.15,0.99,-0.05,0.14,-2.38,-1.05
-0.15,0.99,-0.05,-0.07,-2.24,-0.91
-0.16,0.99,-0.05,0.14,-2.31,-0.91
-0.15,0.99,-0.05,0.14,-2.31,-0.84
-0.16,0.99,-0.05,0.14,-2.31,-0.77
-0.16,0.99,-0.05,0.21,-2.38,-0.84
-0.16,0.99,-0.05,0.07,-2.45,-0.98
-0.16,0.99,-0.05,-0.14,-2.31,-0.98
-0.15,0.99,-0.05,0.14,-2.31,-0.84
-0.15,0.99,-0.05,0.28,-2.45,-0.77
-0.15,0.99,-0.05,0.07,-2.38,-0.84
-0.16,0.99,-0.05,0.21,-2.45,-0.77
-0.15,0.99,-0.05,0.14,-2.31,-0.63
-0.16,0.99,-0.05,0.49,-2.45,-1.05
-0.16,0.99,-0.05,0.42,-2.59,-0.63
-0.15,0.99,-0.05,0.07,-2.45,-0.84
-0.16,0.99,-0.05,0.35,-2.45,-0.63
-0.15,0.99,-0.05,0,-2.38,-0.84
-0.15,0.99,-0.05,0.28,-2.52,-0.84
-0.15,0.99,-0.05,0.14,-2.45,-1.05
-0.15,0.99,-0.05,0.28,-2.45,-0.91
-0.15,0.99,-0.05,0.07,-2.31,-0.84
-0.15,0.99,-0.05,0.07,-2.24,-0.84
-0.15,0.99,-0.05,-0.14,-2.24,-0.91
-0.15,0.99,-0.05,0,-2.31,-0.84
-0.16,0.99,-0.05,0.14,-2.31,-0.98
-0.15,0.99,-0.05,0.21,-2.38,-0.77
-0.16,0.99,-0.05,0.07,-2.45,-0.7
-0.16,0.99,-0.05,0.07,-2.38,-0.7
-0.16,0.99,-0.05,0.14,-2.31,-0.91
-0.15,0.99,-0.05,0.14,-2.31,-0.84
-0.15,0.99,-0.05,0.14,-2.38,-0.84
-0.15,0.99,-0.05,0.28,-2.31,-0.7
-0.16,0.99,-0.05,0.35,-2.52,-0.84
-0.16,0.99,-0.05,0.42,-2.31,-0.77
-0.15,0.99,-0.05,0.35,-2.38,-0.84
-0.15,0.99,-0.05,0,-2.17,-0.91
-0.15,0.99,-0.05,0.14,-2.38,-0.84
-0.16,0.99,-0.05,0.28,-2.59,-0.77
-0.15,0.99,-0.05,0.21,-2.45,-0.77
-0.16,0.99,-0.05,0.35,-2.59,-0.7
-0.16,0.99,-0.05,0.07,-2.31,-0.98
-0.16,0.99,-0.05,0.28,-2.38,-0.77
-0.16,0.99,-0.05,-0.07,-2.24,-0.98
-0.15,0.99,-0.05,-0.14,-2.31,-0.91
-0.16,0.99,-0.05,0,-2.38,-0.91
-0.15,0.99,-0.05,0.28,-2.52,-0.7
-0.15,0.99,-0.05,0.07,-2.38,-0.84
-0.15,0.99,-0.05,0.14,-2.45,-0.77
-0.15,0.99,-0.05,-0.07,-2.24,-0.91
-0.16,0.99,-0.05,0,-2.38,-0.84
-0.15,0.99,-0.05,0.35,-2.52,-0.77
-0.15,0.99,-0.05,0.14,-2.38,-0.84
-0.15,0.99,-0.05,0.42,-2.52,-0.63
-0.16,0.99,-0.05,0.28,-2.31,-0.84
-0.15,0.99,-0.05,0.21,-2.31,-0.77
-0.16,0.99,-0.05,0,-2.38,-0.91
-0.16,0.99,-0.05,0.28,-2.45,-0.84
-0.15,0.99,-0.05,0.14,-2.45,-0.91
-0.16,0.99,-0.05,0.14,-2.31,-0.84
-0.16,0.99,-0.05,0.14,-2.31,-0.84
-0.16,0.99,-0.05,0.07,-2.38,-0.7
-0.16,0.99,-0.05,0.28,-2.38,-0.77
-0.16,0.99,-0.05,0.35,-2.59,-0.7
-0.15,0.99,-0.05,0.14,-2.38,-0.84
-0.15,0.99,-0.05,0.42,-2.59,-0.77
-0.15,0.99,-0.05,0.21,-2.45,-0.84
-0.16,0.99,-0.05,0.28,-2.45,-0.63
-0.16,0.99,-0.05,0.14,-2.38,-0.77
-0.15,0.99,-0.05,0.63,-2.45,-0.63
-0.15,0.99,-0.05,0.21,-2.38,-0.77
-0.16,0.99,-0.05,0.21,-2.38,-0.77
-0.16,0.99,-0.05,0.21,-2.45,-0.91
-0.15,0.99,-0.05,0.21,-2.52,-0.77
-0.15,0.99,-0.05,0.07,-2.31,-0.84
-0.15,0.99,-0.05,0.07,-2.66,-0.49
-0.15,0.99,-0.05,0.14,-2.38,-0.7
-0.15,0.99,-0.05,0.07,-2.31,-0.84
-0.15,0.99,-0.05,0.21,-2.38,-0.84
-0.15,0.99,-0.05,0.28,-2.38,-0.77
-0.16,0.99,-0.05,0.28,-2.52,-0.84
-0.15,0.99,-0.05,0.21,-2.59,-0.77
-0.15,0.99,-0.05,0.35,-2.17,-0.91
-0.16,0.99,-0.05,0.28,-2.52,-0.77
-0.15,0.99,-0.05,0.21,-2.38,-0.77
-0.15,0.99,-0.05,0.35,-2.45,-0.7
-0.16,0.99,-0.05,0.28,-2.38,-0.77
-0.16,0.99,-0.05,0.28,-2.38,-0.84
-0.15,0.99,-0.05,0,-2.24,-1.05
-0.16,0.99,-0.05,0.28,-2.52,-0.7
-0.16,0.99,-0.05,-0.07,-2.38,-0.91
-0.15,0.99,-0.05,0,-2.38,-0.84
-0.15,0.99,-0.05,-0.07,-2.45,-0.84
-0.15,0.99,-0.05,0.07,-2.31,-0.7
-0.15,0.99,-0.05,0.14,-2.1,-0.84
-0.16,0.99,-0.05,0.21,-2.24,-0.84
-0.16,0.99,-0.05,0.28,-2.31,-0.77
-0.15,0.99,-0.05,0,-2.38,-0.91
-0.16,0.99,-0.05,0.35,-2.38,-0.77
-0.16,0.99,-0.05,0.14,-2.45,-0.77
-0.16,0.99,-0.05,0.28,-2.66,-0.63
-0.15,0.99,-0.05,0.14,-2.38,-0.84
-0.16,0.99,-0.05,0.14,-2.45,-0.84
-0.15,0.99,-0.05,0.07,-2.66,-0.84
-0.15,0.99,-0.05,0.21,-2.52,-0.77
-0.15,0.99,-0.05,0.28,-2.59,-0.7
-0.16,0.99,-0.05,0.42,-2.45,-0.63
-0.15,0.99,-0.05,0.28,-2.45,-0.77
-0.16,0.99,-0.05,0.21,-2.45,-0.63
-0.16,0.99,-0.05,0.21,-2.59,-0.63
-0.16,0.99,-0.05,0.35,-2.52,-0.63
-0.16,0.99,-0.05,0.21,-2.38,-0.84
-0.16,0.99,-0.05,0.49,-2.66,-0.7
-0.16,0.99,-0.05,0.14,-2.38,-0.63
-0.15,0.99,-0.05,0.21,-2.24,-1.05
-0.15,0.99,-0.05,0.28,-2.31,-0.91
-0.15,0.99,-0.05,0.28,-2.45,-0.77
-0.15,0.99,-0.05,0.07,-2.17,-0.91
-0.15,0.99,-0.05,0.07,-2.24,-0.98
-0.16,0.99,-0.05,0.21,-2.31,-1.05
-0.16,0.99,-0.05,0.21,-2.38,-0.77
-0.16,0.99,-0.05,0.42,-2.38,-0.77
-0.16,0.99,-0.05,0.35,-2.38,-0.77
-0.16,0.99,-0.05,0.14,-2.31,-0.77
-0.16,0.99,-0.05,0.35,-2.59,-0.77
-0.15,0.99,-0.05,0.35,-2.59,-0.77
-0.15,0.99,-0.05,0.07,-2.38,-0.63
-0.15,0.99,-0.05,-0.07,-2.31,-0.91
-0.15,0.99,-0.05,0.14,-2.45,-0.7
-0.16,0.99,-0.05,0.28,-2.38,-0.77
-0.16,0.99,-0.05,0.28,-2.52,-0.84
-0.15,0.99,-0.05,0,-2.45,-0.91
-0.15,0.99,-0.05,0.35,-2.45,-0.77
-0.15,0.99,-0.05,0.07,-2.24,-0.91
-0.15,0.99,-0.05,0.07,-2.17,-0.77
-0.15,0.99,-0.05,0.21,-2.38,-0.77
-0.16,0.99,-0.05,-0.07,-2.1,-1.05
-0.15,0.99,-0.05,0.07,-2.31,-0.91
-0.16,0.99,-0.05,0.07,-2.59,-0.77
-0.16,0.99,-0.05,-0.07,-2.45,-0.77
-0.15,0.99,-0.05,0.07,-2.45,-0.91
-0.15,0.99,-0.05,0,-2.31,-0.91
-0.16,0.99,-0.05,0,-2.24,-0.98
-0.15,0.99,-0.05,0.21,-2.45,-0.77
-0.15,0.99,-0.05,0.14,-2.45,-0.84
-0.16,0.99,-0.05,0.07,-2.38,-0.91
-0.16,0.99,-0.05,0.07,-2.38,-0.84
-0.16,0.99,-0.05,-0.21,-2.31,-0.84
-0.15,0.99,-0.05,-0.14,-2.24,-0.91
-0.16,0.99,-0.05,-0.21,-2.24,-0.98
-0.16,0.99,-0.05,0.07,-2.1,-0.91
-0.15,0.99,-0.05,-0.07,-2.17,-0.84
-0.16,0.99,-0.05,0.21,-2.31,-0.63
-0.16,0.99,-0.05,0.21,-2.24,-0.77
-0.16,0.99,-0.05,0.21,-2.31,-0.77
-0.16,0.99,-0.05,0.21,-2.45,-0.63
-0.16,0.99,-0.05,-0.07,-2.24,-0.84
-0.15,0.99,-0.05,0.07,-2.45,-0.84
-0.15,0.99,-0.05,0.14,-2.52,-0.84
-0.16,0.99,-0.05,0.28,-2.59,-0.63
-0.16,0.99,-0.05,0.49,-2.59,-0.7
-0.15,0.99,-0.05,0.35,-2.52,-0.98
-0.15,0.99,-0.05,0.63,-2.59,-0.7
-0.15,0.99,-0.05,0.49,-2.52,-0.7
-0.15,0.99,-0.05,0.28,-2.31,-0.84
-0.16,0.99,-0.05,0.14,-2.38,-0.84
-0.15,0.99,-0.05,0.07,-2.31,-0.77
-0.15,0.99,-0.05,0.14,-2.31,-0.84
-0.15,0.99,-0.05,0,-2.38,-0.91
-0.16,0.99,-0.05,0,-2.31,-0.77
-0.15,0.99,-0.05,0.21,-2.66,-0.56
-0.16,0.99,-0.05,0.14,-2.38,-0.7
-0.15,0.99,-0.05,0.42,-2.52,-0.7
-0.15,0.99,-0.05,0,-2.24,-0.91
-0.15,0.99,-0.05,0,-2.31,-0.91
-0.16,0.99,-0.05,0.07,-2.31,-0.91
-0.16,0.99,-0.05,0.14,-2.24,-0.84
-0.16,0.99,-0.05,0.07,-2.17,-0.91
-0.16,0.99,-0.05,0,-2.17,-0.91
-0.15,0.99,-0.05,0.35,-2.38,-0.91
-0.16,0.99,-0.05,0.07,-2.17,-0.49
-0.16,0.99,-0.05,0.21,-2.03,-0.84
-0.15,0.99,-0.05,0.14,-2.31,-0.77
-0.16,0.99,-0.05,0.28,-2.38,-0.7
-0.16,0.99,-0.05,0.42,-2.38,-0.77
-0.15,0.99,-0.05,0.49,-2.31,-0.63
-0.16,0.99,-0.05,0.49,-2.59,-0.7
-0.16,0.99,-0.05,0.21,-2.45,-0.84
-0.15,0.99,-0.05,0.35,-2.66,-0.7
-0.16,0.99,-0.05,0.14,-2.52,-0.84
-0.15,0.99,-0.05,0.42,-2.73,-0.63
-0.15,0.99,-0.05,0.21,-2.66,-0.84
-0.15,0.99,-0.05,0,-2.52,-0.84
-0.15,0.99,-0.05,0,-2.38,-0.84
-0.15,0.99,-0.05,0.21,-2.45,-0.7
-0.15,0.99,-0.05,0.14,-2.31,-0.77
-0.15,0.99,-0.05,0,-2.24,-0.77
-0.16,0.99,-0.05,-0.28,-2.17,-0.98
-0.15,0.99,-0.05,-0.21,-2.31,-0.91
-0.15,0.99,-0.05,0,-2.45,-0.91
-0.15,0.99,-0.05,-0.21,-2.38,-0.77
-0.15,0.99,-0.05,-0.14,-2.38,-0.98
-0.16,0.99,-0.05,0,-2.52,-0.77
-0.16,0.99,-0.05,-0.07,-2.52,-0.7
-0.16,0.99,-0.05,0.28,-2.38,-0.77
-0.16,0.99,-0.05,0.21,-2.38,-0.84
-0.16,0.99,-0.05,0.21,-2.45,-0.84
-0.15,0.99,-0.05,0.35,-2.38,-0.77
-0.15,0.99,-0.05,0.21,-2.31,-0.98
-0.15,0.99,-0.05,0.42,-2.45,-0.7
-0.16,0.99,-0.05,0.56,-2.52,-0.63
-0.15,0.99,-0.05,0.35,-2.31,-0.84
-0.15,0.99,-0.05,0.42,-2.45,-0.77
-0.16,0.99,-0.05,0.28,-2.31,-0.7
-0.16,0.99,-0.05,0.35,-2.38,-0.77
-0.16,0.99,-0.05,0.21,-2.38,-0.84
-0.16,0.99,-0.05,0,-2.38,-0.91
-0.15,0.99,-0.05,0.21,-2.52,-0.7
-0.15,0.99,-0.05,0,-2.31,-0.84
-0.16,0.99,-0.05,0.14,-2.45,-0.77
-0.15,0.99,-0.05,-0.14,-2.38,-0.91
-0.15,0.99,-0.05,0,-2.31,-0.84
-0.15,0.99,-0.05,0.21,-2.38,-0.84
-0.16,0.99,-0.05,0.07,-2.31,-0.77
-0.15,0.99,-0.05,0.14,-2.52,-0.84
-0.16,0.99,-0.05,0.07,-2.45,-0.77
-0.16,0.99,-0.05,-0.07,-2.38,-0.84
-0.15,0.99,-0.05,-0.14,-2.31,-0.77
-0.16,0.99,-0.05,0,-2.31,-0.84
-0.15,0.99,-0.05,0.07,-2.38,-0.77
-0.15,0.99,-0.05,0,-2.24,-0.98
-0.15,0.99,-0.05,0,-2.31,-0.84
-0.16,0.99,-0.05,0.21,-2.45,-0.84
-0.16,0.99,-0.05,0.07,-2.31,-0.84
-0.16,0.99,-0.05,0.07,-2.31,-0.77
-0.16,0.99,-0.05,0.14,-2.31,-0.91
-0.15,0.99,-0.05,0.14,-2.38,-0.7
-0.15,0.99,-0.05,0.21,-2.38,-0.77
-0.15,0.99,-0.05,0.21,-2.31,-0.7
-0.16,0.99,-0.05,0.14,-2.38,-0.77
-0.16,0.99,-0.05,0.56,-2.59,-0.7
-0.16,0.99,-0.05,0.21,-2.45,-1.05
-0.16,0.99,-0.05,0.28,-2.38,-0.77
-0.16,0.99,-0.05,0.21,-2.31,-0.84
-0.15,0.99,-0.05,0.07,-2.38,-0.84
-0.16,0.99,-0.05,0.21,-2.38,-0.84
-0.16,0.99,-0.05,0.35,-2.38,-0.77
-0.16,0.99,-0.05,0.35,-2.45,-0.77
-0.16,0.99,-0.05,0.28,-2.38,-0.7
-0.16,0.99,-0.05,0,-2.38,-0.77
-0.16,0.99,-0.05,0.21,-2.31,-0.91
-0.15,0.99,-0.05,0,-2.24,-0.91
-0.16,0.99,-0.05,0.07,-2.38,-0.77
-0.16,0.99,-0.05,0.14,-2.45,-0.84
-0.16,0.99,-0.05,0.35,-2.45,-0.63
-0.15,0.99,-0.05,0.07,-2.45,-0.77
-0.16,0.99,-0.05,-0.07,-2.31,-0.91
-0.15,0.99,-0.05,0.14,-2.31,-0.84
-0.15,0.99,-0.05,-0.14,-2.24,-0.84
-0.16,0.99,-0.05,0.14,-2.38,-0.84
-0.16,0.99,-0.05,0,-2.31,-0.91
-0.16,0.99,-0.05,-0.07,-2.31,-0.63
-0.16,0.99,-0.05,0,-2.24,-1.05
-0.15,0.99,-0.05,-0.07,-2.17,-0.98
-0.16,0.99,-0.05,0.14,-2.45,-0.77
-0.16,0.99,-0.05,0.35,-2.52,-0.84
-0.16,0.99,-0.05,0,-2.38,-0.84
-0.16,0.99,-0.05,0.07,-2.31,-0.7
-0.16,0.99,-0.05,0.28,-2.59,-0.84
-0.16,0.99,-0.05,0.21,-2.52,-0.84
-0.15,0.99,-0.05,0.14,-2.31,-0.91
-0.15,0.99,-0.05,0.35,-2.45,-0.7
-0.15,0.99,-0.05,0.49,-2.45,-0.63
-0.15,0.99,-0.05,0.49,-2.52,-0.56
-0.16,0.99,-0.05,0.42,-2.45,-0.7
-0.15,0.99,-0.05,0.14,-2.24,-1.05
-0.16,0.99,-0.05,0.21,-2.38,-0.7
-0.16,0.99,-0.05,0.14,-2.38,-0.84
-0.16,0.99,-0.05,-0.07,-2.31,-0.84
-0.15,0.99,-0.05,0.07,-2.38,-0.84
-0.16,0.99,-0.05,0.21,-2.52,-0.77
-0.16,0.99,-0.05,0.14,-2.45,-0.49
-0.15,0.99,-0.05,0.28,-2.52,-0.77
-0.15,0.99,-0.05,0.28,-2.24,-0.84
-0.15,0.99,-0.05,0.14,-2.38,-0.84
-0.15,0.99,-0.05,0.35,-2.38,-0.77
-0.16,0.99,-0.05,0.42,-2.31,-0.77
-0.16,0.99,-0.05,0.28,-2.45,-0.98
-0.15,0.99,-0.05,0.35,-2.45,-0.98
-0.15,0.99,-0.05,0.21,-2.52,-0.56
-0.16,0.99,-0.05,0.42,-2.03,-1.05
-0.16,0.99,-0.05,0.21,-2.31,-0.7
-0.16,0.99,-0.05,0.28,-2.52,-0.7
-0.15,0.99,-0.05,0,-2.38,-0.91
-0.15,0.99,-0.05,0.21,-2.31,-0.77
-0.16,0.99,-0.05,0,-2.38,-0.77
-0.15,0.99,-0.05,0.07,-2.59,-0.49
-0.15,0.99,-0.05,-0.14,-2.45,-0.63
-0.16,0.99,-0.05,-0.14,-2.17,-0.98
-0.15,0.99,-0.05,0.21,-2.24,-0.91
-0.16,0.99,-0.05,0.28,-2.45,-0.7
-0.15,0.99,-0.05,0.21,-2.24,-0.91
-0.16,0.99,-0.05,0.28,-2.31,-0.77
-0.16,0.99,-0.05,0.35,-2.52,-0.7
-0.15,0.99,-0.05,0,-2.31,-0.91
-0.15,0.99,-0.05,0.14,-2.38,-0.77
-0.15,0.99,-0.05,0.07,-2.38,-0.91
-0.16,0.99,-0.05,0.21,-2.38,-0.84
-0.16,0.99,-0.05,0.07,-2.38,-0.77
-0.15,0.99,-0.05,-0.07,-2.24,-0.84
-0.16,0.99,-0.05,0.28,-2.52,-0.7
-0.15,0.99,-0.05,0.14,-2.38,-0.84
-0.16,0.99,-0.05,-0.07,-2.31,-0.98
-0.15,0.99,-0.05,-0.28,-2.1,-1.05
-0.15,0.99,-0.05,0,-2.31,-0.91
-0.15,0.99,-0.05,0.14,-2.38,-0.77
-0.15,0.99,-0.05,0,-2.24,-0.91
-0.15,0.99,-0.05,0.14,-2.1,-0.84
-0.16,0.99,-0.05,0.14,-2.17,-0.77
-0.16,0.99,-0.05,-0.07,-2.1,-0.98
-0.16,0.99,-0.05,0.63,-2.38,-0.77
-0.16,0.99,-0.05,0.28,-2.38,-0.56
-0.16,0.99,-0.05,0.21,-2.45,-0.84
-0.16,0.99,-0.05,0.35,-2.66,-0.7
-0.16,0.99,-0.05,0.07,-2.66,-0.98
-0.16,0.99,-0.05,-0.07,-2.52,-0.77
-0.16,0.99,-0.05,-0.07,-2.38,-0.77
-0.15,0.99,-0.05,0.07,-2.66,-0.7
-0.15,0.99,-0.05,0.21,-2.31,-0.77
-0.15,0.99,-0.05,0.21,-2.38,-0.63
-0.15,0.99,-0.05,0.35,-2.24,-0.84
-0.15,0.99,-0.05,0.14,-2.17,-0.84
-0.15,0.99,-0.05,0.42,-2.38,-0.84
-0.15,0.99,-0.05,0.21,-2.38,-0.91
-0.15,0.99,-0.06,-0.21,-2.1,-0.98
-0.16,0.99,-0.05,-0.21,-2.1,-1.05
-0.16,0.99,-0.05,-0.07,-2.24,-1.05
-0.15,0.99,-0.05,0,-2.31,-0.91
-0.16,0.99,-0.05,-0.21,-2.31,-0.91
-0.16,0.99,-0.05,-0.07,-2.31,-0.91
-0.16,0.99,-0.05,-0.14,-2.38,-0.91
-0.15,0.99,-0.05,-0.07,-2.31,-0.84
-0.16,0.99,-0.05,0.14,-2.31,-0.7
-0.16,0.99,-0.05,0,-2.31,-0.7
-0.16,0.99,-0.05,0.35,-2.38,-0.77
-0.16,0.99,-0.05,0.28,-2.52,-0.77
-0.16,0.99,-0.05,0.28,-2.38,-0.91
-0.16,0.99,-0.05,0.28,-2.31,-0.84
-0.15,0.99,-0.05,0.56,-2.59,-0.84
-0.15,0.99,-0.05,0.35,-2.73,-0.63
-0.15,0.99,-0.05,0.42,-2.52,-0.77
-0.16,0.99,-0.05,0.28,-2.38,-0.77
-0.15,0.99,-0.05,0.28,-2.24,-0.84
-0.15,0.99,-0.05,0,-2.1,-0.91
-0.15,0.99,-0.05,0.42,-2.38,-0.77
-0.15,0.99,-0.05,0.42,-2.1,-0.91
-0.16,0.99,-0.05,0.14,-2.03,-0.91
-0.15,0.99,-0.05,0.14,-2.17,-0.84
-0.15,0.99,-0.05,0,-2.1,-0.91
-0.16,0.99,-0.05,0.14,-2.38,-0.84
-0.16,0.99,-0.05,0.28,-2.45,-0.84
-0.16,0.99,-0.05,0.21,-2.52,-0.91
-0.15,0.99,-0.05,0,-2.38,-0.77
-0.16,0.99,-0.05,0.35,-2.38,-0.98
-0.15,0.99,-0.05,0.14,-2.31,-0.84
-0.15,0.99,-0.05,0.28,-2.31,-0.77
-0.15,0.99,-0.05,0,-2.24,-0.91
-0.15,0.99,-0.05,0.21,-2.38,-0.91
-0.15,0.99,-0.05,-0.07,-2.38,-0.84
-0.15,0.99,-0.05,0.07,-2.31,-1.05
-0.16,0.99,-0.05,-0.07,-2.38,-0.98
-0.16,0.99,-0.05,-0.21,-2.17,-0.91
-0.15,0.99,-0.05,-0.42,-2.24,-1.05
-0.16,0.99,-0.05,-0.42,-2.17,-1.19
-0.16,0.99,-0.05,-0.21,-2.31,-0.98
-0.16,0.99,-0.05,-0.28,-2.1,-0.91
-0.16,0.99,-0.05,-0.28,-2.03,-1.05
-0.16,0.99,-0.05,-0.21,-2.17,-0.91
-0.16,0.99,-0.05,0.07,-2.31,-0.77
-0.16,0.99,-0.05,0.21,-2.52,-0.77
-0.16,0.99,-0.05,0.21,-2.45,-0.77
-0.16,0.99,-0.05,0.14,-2.45,-0.84
-0.15,0.99,-0.05,0.14,-2.45,-0.84
-0.16,0.99,-0.05,0.42,-2.66,-0.7
-0.16,0.99,-0.05,0.21,-2.31,-0.84
-0.15,0.99,-0.05,0.63,-2.59,-0.56
-0.15,0.99,-0.05,0.49,-2.52,-0.7
-0.16,0.99,-0.05,0.56,-2.45,-0.63
-0.15,0.99,-0.05,0.56,-2.38,-0.84
-0.15,0.99,-0.05,0.49,-2.52,-0.49
-0.15,0.99,-0.05,0.42,-2.31,-0.77
-0.15,0.99,-0.05,0.49,-2.31,-0.77
-0.16,0.99,-0.05,0.28,-2.17,-0.77
-0.15,0.99,-0.05,0.28,-2.31,-0.77
-0.15,0.99,-0.05,0.28,-2.31,-0.98
-0.15,0.99,-0.05,0.28,-2.24,-0.84
-0.16,0.99,-0.05,0,-2.17,-0.84
-0.16,0.99,-0.05,-0.21,-2.1,-0.91
-0.15,0.99,-0.05,-0.21,-2.17,-1.05
-0.15,0.99,-0.05,-0.21,-2.17,-0.98
-0.16,0.99,-0.05,-0.28,-2.17,-0.98
-0.16,0.99,-0.05,-0.35,-2.24,-0.91
-0.16,0.99,-0.05,-0.07,-2.24,-0.91
-0.16,0.99,-0.05,-0.35,-2.59,-0.77
-0.15,0.99,-0.05,-0.28,-2.31,-1.05
-0.15,0.99,-0.05,-0.14,-2.31,-0.98
-0.15,0.99,-0.05,-0.14,-2.45,-0.98
-0.15,0.99,-0.05,0,-2.45,-1.12
-0.16,0.99,-0.05,-0.14,-2.52,-0.91
-0.16,0.99,-0.05,-0.14,-2.38,-0.77
-0.16,0.99,-0.05,-0.07,-2.1,-0.98
-0.15,0.99,-0.05,-0.21,-2.1,-1.05
-0.16,0.99,-0.05,0.07,-2.31,-0.91
-0.15,0.99,-0.05,0,-2.24,-0.84
-0.16,0.99,-0.05,0,-2.17,-0.91
-0.15,0.99,-0.05,0.28,-2.31,-0.7
-0.16,0.99,-0.05,0.21,-2.24,-0.91
-0.16,0.99,-0.05,0.14,-2.38,-0.84
-0.16,0.99,-0.05,0.21,-2.59,-0.77
-0.16,0.99,-0.05,0.07,-2.38,-0.84
-0.15,0.99,-0.05,0.07,-2.52,-0.77
-0.16,0.99,-0.05,-0.07,-2.38,-1.05
-0.16,0.99,-0.05,0.14,-2.45,-0.77
-0.15,0.99,-0.05,-0.07,-2.45,-0.77
-0.16,0.99,-0.05,0.14,-2.24,-0.7
-0.16,0.99,-0.05,0.28,-2.45,-0.7
-0.16,0.99,-0.05,0.14,-2.38,-0.77
-0.16,0.99,-0.05,0.28,-2.31,-1.05
-0.15,0.99,-0.05,0.07,-2.31,-0.77
-0.16,0.99,-0.05,0.14,-2.38,-0.7
-0.15,0.99,-0.05,0.21,-2.52,-0.63
-0.15,0.99,-0.05,0.07,-2.38,-0.84
-0.15,0.99,-0.05,0.07,-2.38,-0.84
-0.16,0.99,-0.05,0.14,-2.45,-0.91
-0.15,0.99,-0.05,0.07,-2.38,-0.84
-0.16,0.99,-0.05,0.42,-2.45,-0.7
-0.15,0.99,-0.05,-0.21,-2.24,-0.77
-0.16,0.99,-0.05,-0.07,-2.24,-0.84
-0.16,0.99,-0.05,0.21,-2.38,-0.7
-0.16,0.99,-0.05,0.07,-2.31,-0.7
-0.15,0.99,-0.05,-0.07,-2.24,-0.91
-0.15,0.99,-0.05,0.14,-2.31,-0.84
-0.16,0.99,-0.05,0.28,-2.17,-0.84
-0.16,0.99,-0.05,0.28,-2.31,-0.84
-0.15,0.99,-0.05,0.28,-2.31,-0.84
-0.16,0.99,-0.05,0.42,-2.59,-0.84
-0.16,0.99,-0.05,0.07,-2.45,-1.05
-0.15,0.99,-0.05,0.21,-2.45,-0.91
-0.15,0.99,-0.05,0.21,-2.59,-0.84
-0.15,0.99,-0.05,0.21,-2.31,-0.84
-0.15,0.99,-0.05,0,-2.31,-0.98
-0.16,0.99,-0.05,-0.07,-2.31,-0.77
-0.15,0.99,-0.05,0.14,-2.38,-0.77
-0.16,0.99,-0.05,0.07,-2.31,-0.84
-0.15,0.99,-0.05,0.07,-2.31,-0.7
-0.16,0.99,-0.05,0.14,-2.31,-0.98
-0.16,0.99,-0.05,0.14,-2.31,-0.77
-0.16,0.99,-0.05,0.14,-2.24,-0.77
-0.16,0.99,-0.05,0.42,-2.45,-0.77
-0.16,0.99,-0.05,0.14,-2.45,-0.84
-0.16,0.99,-0.05,0.28,-2.45,-0.7
-0.16,0.99,-0.05,0,-2.45,-0.84
-0.16,0.99,-0.05,0.28,-2.45,-0.7
-0.15,0.99,-0.05,0.07,-2.45,-0.7
-0.16,0.99,-0.05,0.28,-2.52,-0.7
-0.15,0.99,-0.05,0.21,-2.45,-0.7
-0.16,0.99,-0.05,0.21,-2.45,-0.77
-0.15,0.99,-0.05,0.35,-2.52,-0.91
-0.15,0.99,-0.05,0,-2.24,-0.91
-0.15,0.99,-0.05,0,-2.38,-0.7
-0.15,0.99,-0.05,0.07,-2.24,-0.84
-0.16,0.99,-0.05,0.35,-2.31,-0.77
-0.16,0.99,-0.05,0.07,-2.17,-0.91
-0.16,0.99,-0.05,0.28,-2.38,-0.91
-0.16,0.99,-0.05,0,-2.31,-0.98
-0.16,0.99,-0.05,0.42,-2.52,-0.77
-0.16,0.99,-0.05,0.07,-2.38,-0.84
-0.15,0.99,-0.05,0.35,-2.45,-0.77
-0.15,0.99,-0.05,0.14,-2.38,-0.7
-0.15,0.99,-0.05,0.28,-2.66,-0.56
-0.15,0.99,-0.05,0.21,-2.59,-0.7
-0.15,0.99,-0.05,0.14,-2.38,-0.63
-0.15,0.99,-0.05,0.28,-2.45,-0.7
-0.15,0.99,-0.05,0,-2.38,-0.77
-0.15,0.99,-0.05,0.21,-2.38,-0.84
-0.15,0.99,-0.05,0.28,-2.52,-0.98
-0.15,0.99,-0.05,-0.07,-2.31,-0.84
-0.16,0.99,-0.05,0,-2.1,-0.98
-0.15,0.99,-0.05,-0.35,-2.1,-1.12
-0.15,0.99,-0.05,0.14,-2.24,-0.84
-0.16,0.99,-0.05,0.14,-2.38,-0.84
-0.16,0.99,-0.05,0.14,-2.24,-0.84
-0.16,0.99,-0.05,0.14,-2.31,-1.05
-0.15,0.99,-0.05,0.07,-2.24,-0.84
-0.16,0.99,-0.05,0,-2.52,-0.77
-0.15,0.99,-0.05,0,-2.31,-0.91
-0.16,0.99,-0.05,-0.28,-2.38,-0.98
-0.16,0.99,-0.04,0.21,-2.31,-0.77
-0.16,0.99,-0.04,0,-2.24,-0.91
-0.16,0.99,-0.04,0,-2.24,-0.77
-0.15,0.99,-0.04,0.07,-2.38,-0.77
-0.15,0.99,-0.04,0.14,-2.31,-0.7
-0.16,0.99,-0.04,-0.28,-2.24,-1.05
-0.15,0.99,-0.04,0,-2.24,-0.77
-0.15,0.99,-0.04,-0.14,-2.38,-0.84
-0.15,0.99,-0.04,-0.14,-2.45,-0.91
-0.15,0.99,-0.04,-0.28,-2.38,-0.91
-0.15,0.99,-0.04,0,-2.59,-0.84
-0.15,0.99,-0.04,-0.21,-2.38,-1.05
-0.15,0.99,-0.04,-0.07,-2.45,-0.77
-0.15,0.99,-0.04,-0.14,-2.45,-0.77
-0.15,0.99,-0.04,17.78,-2.52,-0.84
-0.15,0.99,-0.04,-0.28,-2.31,-0.98
-0.15,0.99,-0.04,-0.07,-2.38,-0.91
-0.16,0.99,-0.04,-0.14,-2.38,-0.91
-0.16,0.99,-0.04,-0.21,-2.17,-0.77
-0.16,0.99,-0.04,-0.21,-2.17,-0.98
-0.16,0.99,-0.04,0,-2.45,-0.77
-0.16,0.99,-0.04,-0.21,-2.17,-0.91
-0.16,0.99,-0.04,0.14,-2.31,-0.7
-0.16,0.99,-0.04,0.07,-2.45,-0.77
-0.16,0.99,-0.04,0.07,-2.45,-0.77
-0.15,0.99,-0.04,-0.07,-2.31,-0.7
-0.15,0.99,-0.04,0.07,-2.38,-0.84
-0.15,0.99,-0.04,0.14,-2.59,-0.7
-0.16,0.99,-0.04,0.07,-2.38,-0.84
-0.15,0.99,-0.04,0.21,-2.45,-0.84
-0.15,0.99,-0.04,0.21,-2.45,-0.84
-0.15,0.99,-0.04,0.14,-2.31,-0.77
-0.15,0.99,-0.04,0.21,-2.17,-0.84
-0.15,0.99,-0.04,0.14,-2.17,-0.91
-0.16,0.99,-0.04,0.42,-2.24,-0.84
-0.16,0.99,-0.04,0.42,-2.24,-0.7
-0.16,0.99,-0.04,0.42,-2.24,-0.7
-0.16,0.99,-0.04,0.28,-2.17,-0.77
-0.16,0.99,-0.04,0.35,-2.38,-0.77
-0.16,0.99,-0.04,0,-2.17,-0.98
-0.16,0.99,-0.04,0.14,-2.24,-0.84
-0.16,0.99,-0.04,0.21,-2.59,-0.7
-0.16,0.99,-0.04,-0.07,-2.45,-0.84
-0.15,0.99,-0.04,0.07,-2.52,-0.7
-0.15,0.99,-0.04,0.14,-2.45,-0.84
-0.15,0.99,-0.04,0.21,-2.52,-0.77
-0.15,0.99,-0.04,0.07,-2.31,-0.77
-0.15,0.99,-0.04,0,-2.38,-0.7
-0.16,0.99,-0.04,0.35,-2.66,-0.7
-0.15,0.99,-0.04,0.07,-2.31,-0.77
-0.15,0.99,-0.04,-0.07,-2.17,-0.98
-0.15,0.99,-0.04,0,-2.45,-1.05
-0.15,0.99,-0.04,-0.14,-2.31,-0.77
-0.15,0.99,-0.04,-0.07,-2.17,-0.98
-0.15,0.99,-0.04,0.14,-2.24,-0.77
-0.15,0.99,-0.04,0,-2.1,-0.84
-0.16,0.99,-0.04,0.21,-2.38,-0.7
-0.16,0.99,-0.04,0.42,-2.52,-0.63
-0.15,0.99,-0.04,0.21,-2.45,-0.91
-0.15,0.99,-0.04,0.14,-2.38,-0.98
-0.15,0.99,-0.04,0.07,-2.45,-0.77
-0.16,0.99,-0.04,0.21,-2.17,-0.91
-0.16,0.99,-0.04,0,-2.1,-0.84
-0.15,0.99,-0.04,0.07,-2.31,-0.77
-0.15,0.99,-0.04,-0.21,-2.24,-0.98
-0.15,0.99,-0.04,-0.14,-2.17,-0.7
-0.15,0.99,-0.04,0.28,-2.31,-0.7
-0.16,0.99,-0.04,0.28,-2.31,-0.77
-0.16,0.99,-0.04,0.28,-2.38,-0.7
-0.16,0.99,-0.04,-0.07,-2.38,-0.84
-0.15,0.99,-0.04,0.21,-2.52,-0.7
-0.15,0.99,-0.04,0.07,-2.73,-0.84
-0.16,0.99,-0.04,-0.07,-2.59,-0.7
-0.16,0.99,-0.04,-0.07,-2.45,-0.91
-0.15,0.99,-0.04,-0.35,-2.52,-0.7
-0.15,0.99,-0.04,-0.07,-2.38,-0.98
-0.15,0.99,-0.04,0.28,-2.45,-0.77
-0.15,0.99,-0.04,0.07,-2.24,-0.91
-0.16,0.99,-0.04,0.21,-2.1,-0.7
-0.15,0.99,-0.04,0.35,-2.03,-0.63
-0.16,0.99,-0.04,0.35,-2.17,-0.63
-0.16,0.99,-0.04,0.07,-2.17,-0.7
-0.16,0.99,-0.04,0,-2.24,-0.84
-0.15,0.99,-0.04,-0.07,-2.24,-0.7
-0.16,0.99,-0.04,0.21,-2.45,-0.7
-0.15,0.99,-0.04,0.35,-2.59,-0.35
-0.15,0.99,-0.04,0.07,-2.24,-0.7
-0.15,0.99,-0.04,0.21,-2.59,-0.63
-0.15,0.99,-0.04,0.28,-2.31,-0.63
-0.15,0.99,-0.04,0.28,-2.31,-0.63
-0.15,0.99,-0.04,0.49,-2.38,-0.77
-0.15,0.99,-0.04,0.28,-2.38,-0.77
-0.15,0.99,-0.04,0.21,-2.38,-0.77
-0.15,0.99,-0.04,0,-2.17,-0.91
-0.15,0.99,-0.04,0.07,-2.38,-0.63
-0.15,0.99,-0.04,0.21,-2.17,-0.77
-0.16,0.99,-0.04,0.07,-2.03,-0.77
-0.16,0.99,-0.04,-0.07,-1.96,-0.91
-0.16,0.99,-0.04,-0.07,-2.17,-0.77
-0.15,0.99,-0.04,0,-2.24,-0.63
-0.15,0.99,-0.04,-0.28,-2.1,-0.98
-0.16,0.99,-0.03,-0.21,-2.38,-0.91
-0.15,0.99,-0.04,-0.07,-2.52,-0.7
-0.16,0.99,-0.04,-0.42,-2.45,-0.91
-0.15,0.99,-0.04,-0.21,-2.52,-0.91
-0.15,0.99,-0.04,0.07,-2.52,-0.77
-0.15,0.99,-0.04,-0.14,-2.52,-0.84
-0.15,0.99,-0.04,0.07,-2.38,-0.98
-0.15,0.99,-0.04,0.35,-2.52,-0.77
-0.15,0.99,-0.04,0,-2.24,-0.91
-0.15,0.99,-0.04,0,-2.31,-0.84
-0.15,0.99,-0.04,-0.07,-2.24,-0.84
-0.16,0.99,-0.04,0,-2.24,-0.98
-0.15,0.99,-0.04,0.28,-2.1,-0.77
-0.16,0.99,-0.04,0.21,-2.45,-0.63
-0.15,0.99,-0.04,0.35,-2.31,-0.91
-0.15,0.99,-0.04,-0.07,-2.17,-0.84
-0.15,0.99,-0.04,-0.07,-2.31,-0.91
-0.15,0.99,-0.04,0,-2.24,-0.77
-0.15,0.99,-0.04,0,-2.24,-0.91
-0.16,0.99,-0.04,-0.07,-2.38,-0.91
-0.15,0.99,-0.04,0.07,-2.24,-0.98
-0.15,0.99,-0.04,-0.28,-2.17,-0.98
-0.15,0.99,-0.04,0.14,-2.1,-0.84
-0.16,0.99,-0.04,0.35,-2.38,-0.7
-0.16,0.99,-0.04,0.21,-2.38,-0.77
-0.15,0.99,-0.04,0.35,-2.45,-0.84
-0.16,0.99,-0.04,0.07,-2.38,-0.84
-0.15,0.99,-0.04,0.14,-2.38,-0.77
-0.16,0.99,-0.04,0.14,-2.52,-0.84
-0.16,0.99,-0.04,0,-2.59,-0.84
-0.15,0.99,-0.04,-0.07,-2.38,-0.91
-0.15,0.99,-0.04,0.14,-2.59,-0.84
-0.15,0.99,-0.04,0.07,-2.59,-0.77
-0.15,0.99,-0.04,0.07,-2.24,-0.91
-0.16,0.99,-0.04,-0.07,-2.17,-0.98
-0.16,0.99,-0.03,0.42,-2.38,-0.7
-0.16,0.99,-0.04,0.35,-2.31,-0.77
-0.15,0.99,-0.04,0.49,-2.45,-0.42
-0.16,0.99,-0.04,0.28,-2.31,-0.77
-0.15,0.99,-0.04,0.7,-2.31,-0.63
-0.16,0.99,-0.04,0.42,-2.31,-0.7
-0.15,0.99,-0.04,0.7,-2.59,-0.56
-0.15,0.99,-0.04,0.14,-2.38,-0.84
-0.15,0.99,-0.04,0.14,-2.38,-0.84
-0.15,0.99,-0.04,0.35,-2.45,-0.63
-0.15,0.99,-0.04,0.21,-2.31,-0.91
-0.15,0.99,-0.04,0.07,-2.17,-0.91
-0.15,0.99,-0.04,0.14,-2.1,-0.7
-0.16,0.99,-0.04,0.28,-2.1,-0.84
-0.15,0.99,-0.04,0.42,-2.1,-0.7
-0.16,0.99,-0.04,0.21,-2.03,-0.84
-0.16,0.99,-0.04,0.28,-2.24,-0.63
-0.16,0.99,-0.04,0.28,-2.31,-0.91
-0.16,0.99,-0.04,0.07,-2.45,-0.84
-0.16,0.99,-0.04,0,-2.66,-0.77
-0.15,0.99,-0.04,0.07,-2.66,-0.77
-0.15,0.99,-0.04,-0.14,-2.59,-0.84
-0.15,0.99,-0.04,-0.07,-2.66,-0.77
-0.16,0.99,-0.04,0.21,-2.66,-1.05
-0.15,0.99,-0.04,0.42,-2.66,-0.7
-0.15,0.99,-0.04,0.49,-2.45,-0.84
-0.15,0.99,-0.04,0.42,-2.31,-0.77
-0.15,0.99,-0.04,0.49,-2.38,-0.7
-0.16,0.99,-0.04,0.42,-2.38,-0.7
-0.15,0.99,-0.04,0.28,-2.31,-0.7
-0.15,0.99,-0.04,0,-2.31,-0.7
-0.15,0.99,-0.04,0.07,-2.38,-0.77
-0.16,0.99,-0.04,0.07,-2.31,-0.84
-0.15,0.99,-0.04,-0.14,-2.31,-0.98
-0.15,0.99,-0.04,-0.07,-2.24,-0.91
-0.15,0.99,-0.04,-0.14,-2.1,-0.91
-0.15,0.99,-0.04,-0.14,-2.24,-0.91
-0.15,0.99,-0.04,0.14,-2.38,-0.84
-0.15,0.99,-0.04,0.14,-2.17,-0.91
-0.15,0.99,-0.04,0.35,-2.24,-0.77
-0.15,0.99,-0.04,0.28,-2.24,-0.84
-0.16,0.99,-0.04,0.35,-2.17,-0.77
-0.15,0.99,-0.04,0.63,-2.38,-0.7
-0.15,0.99,-0.04,0.49,-2.31,-0.84
-0.16,0.99,-0.04,0.56,-2.52,-0.63
-0.15,0.99,-0.04,0.28,-2.38,-0.63
-0.16,0.99,-0.04,0.21,-2.17,-0.77
-0.16,0.99,-0.04,0.14,-2.17,-0.77
-0.15,0.99,-0.04,0.07,-2.17,-0.77
-0.15,0.99,-0.04,0.07,-2.24,-0.7
-0.15,0.99,-0.04,0.14,-2.31,-0.84
-0.15,0.99,-0.04,-0.42,-2.1,-0.91
-0.15,0.99,-0.04,-0.63,-1.89,-0.98
-0.15,0.99,-0.04,-0.42,-2.31,-0.91
-0.15,0.99,-0.04,-0.77,-1.96,-1.05
-0.15,0.99,-0.05,-0.7,-2.03,-0.98
-0.15,0.99,-0.04,-1.33,-1.75,-1.33
-0.15,0.99,-0.05,-1.4,-1.61,-1.4
-0.15,0.99,-0.04,-2.03,-1.26,-1.54
-0.16,0.99,-0.04,-2.45,-1.89,-1.19
-0.16,1,-0.04,-2.45,-1.33,-1.47
-0.15,0.99,-0.05,-2.38,-1.47,-1.61
-0.15,0.99,-0.04,-2.17,-1.61,-1.47
-0.15,0.99,-0.04,-2.17,-1.33,-1.54
-0.15,0.98,-0.04,-2.31,-0.7,-1.75
-0.15,0.99,-0.04,-2.31,-0.56,-1.82
-0.15,0.99,-0.04,-2.73,-0.28,-1.96
-0.15,0.99,-0.04,-2.45,-0.42,-1.82
-0.16,0.99,-0.04,-2.1,-0.35,-1.96
-0.16,0.99,-0.03,-2.03,-0.56,-1.61
-0.16,0.99,-0.02,-1.68,-0.42,-1.68
-0.16,0.99,-0.03,-1.82,-0.63,-1.54
-0.16,0.99,-0.02,-1.61,-0.91,-1.4
-0.16,0.99,-0.02,-1.19,-1.19,-1.26
-0.16,0.99,-0.02,-0.98,-1.33,-1.33
-0.16,0.99,-0.02,-0.77,-1.61,-1.26
-0.16,0.99,-0.02,-0.42,-2.1,-1.26
-0.16,0.99,-0.02,-0.28,-2.24,-1.12
-0.16,0.99,-0.02,-0.14,-2.45,-1.05
-0.16,0.99,-0.02,0.35,-2.66,-0.84
-0.16,0.99,-0.02,0.77,-2.66,-0.77
-0.16,0.99,-0.03,1.26,-2.87,-0.63
-0.16,0.99,-0.03,1.4,-2.94,-0.63
-0.16,0.99,-0.03,1.54,-2.87,-0.63
-0.16,0.99,-0.03,1.82,-2.94,-0.42
-0.16,0.99,-0.04,1.75,-2.66,-0.84
-0.16,0.99,-0.04,1.61,-2.87,-0.56
-0.16,0.99,-0.04,1.68,-2.94,-0.42
-0.16,0.99,-0.04,1.54,-2.66,-0.49
-0.15,0.99,-0.04,1.47,-2.38,-0.7
-0.15,0.99,-0.04,1.96,-2.31,-0.56
-0.15,0.99,-0.04,1.68,-2.24,-0.7
-0.15,0.99,-0.04,1.47,-2.24,-0.91
-0.15,0.99,-0.04,0.84,-2.17,-0.77
-0.15,0.99,-0.04,0.63,-2.03,-0.84
-0.15,0.99,-0.04,0.49,-2.1,-0.98
-0.15,0.99,-0.04,0.14,-1.96,-0.91
-0.16,0.99,-0.04,-0.28,-2.03,-1.05
-0.15,0.99,-0.04,-0.63,-1.89,-1.05
-0.16,0.99,-0.04,-0.91,-1.82,-1.19
-0.16,0.99,-0.04,-1.12,-1.75,-1.12
-0.16,0.99,-0.04,-1.26,-1.82,-1.26
-0.16,0.99,-0.03,-1.33,-1.82,-1.19
-0.16,0.99,-0.03,-1.26,-1.82,-1.12
-0.16,0.99,-0.03,-1.05,-1.75,-0.91
-0.16,0.99,-0.03,-1.05,-2.03,-0.98
-0.16,0.99,-0.03,-1.05,-1.96,-0.98
-0.16,0.99,-0.03,-0.84,-2.24,-0.98
-0.16,0.99,-0.03,-0.63,-2.45,-0.91
-0.16,0.99,-0.03,-0.49,-2.45,-1.12
-0.16,0.99,-0.03,0.14,-2.45,-0.7
-0.15,0.99,-0.03,0.35,-2.1,-0.91
-0.16,0.99,-0.03,0.63,-2.31,-0.77
-0.16,0.99,-0.03,0.7,-2.17,-0.49
-0.16,0.99,-0.03,0.84,-2.17,-0.7
-0.16,0.99,-0.03,0.77,-2.17,-0.63
-0.16,0.99,-0.03,0.98,-2.38,-0.77
-0.16,0.99,-0.03,0.98,-2.31,-0.35
-0.16,0.99,-0.03,0.84,-2.52,-0.42
-0.16,0.99,-0.03,1.19,-2.52,-0.42
-0.16,0.99,-0.03,0.91,-2.52,-0.56
-0.16,0.99,-0.04,0.98,-2.73,-0.49
-0.16,0.99,-0.04,1.19,-3.08,-0.35
-0.16,0.99,-0.04,0.84,-3.01,-0.28
-0.16,0.99,-0.03,0.77,-3.01,-0.49
-0.16,0.99,-0.03,1.05,-3.15,-0.56
-0.16,0.99,-0.04,0.21,-3.15,-0.77
-0.16,0.99,-0.04,0.98,-3.36,-0.21
-0.15,0.99,-0.04,0.7,-3.22,-0.49
-0.15,0.99,-0.04,0.7,-3.15,-0.56
-0.15,0.99,-0.04,0.77,-3.01,-0.7
-0.16,0.99,-0.04,1.12,-2.87,-0.49
-0.15,0.99,-0.04,0.91,-2.87,-0.42
-0.15,0.99,-0.03,1.05,-2.8,-0.35
-0.16,0.99,-0.03,0.77,-2.73,-0.56
-0.16,0.99,-0.04,0.77,-2.87,-0.56
-0.16,0.99,-0.04,0.49,-2.73,-0.84
-0.15,0.99,-0.04,0.77,-2.8,-0.63
-0.15,0.99,-0.04,0.49,-2.8,-0.49
-0.15,0.99,-0.04,0.84,-2.73,-0.63
-0.15,0.99,-0.04,0.49,-2.8,-0.77
-0.15,0.99,-0.04,0.49,-2.87,-0.7
-0.16,0.99,-0.04,0.49,-3.01,-0.63
-0.15,0.99,-0.04,0.21,-2.66,-0.91
-0.15,0.99,-0.04,0.35,-2.73,-0.84
-0.15,0.99,-0.04,0.35,-2.45,-0.98
-0.15,0.99,-0.04,0.07,-2.31,-0.91
-0.15,0.99,-0.04,0.35,-2.45,-0.7
-0.15,0.99,-0.04,-0.07,-2.45,-0.91
-0.15,0.99,-0.04,-0.21,-2.45,-0.91
-0.15,0.99,-0.04,0,-2.24,-0.77
-0.15,0.99,-0.04,0,-2.1,-0.91
-0.15,0.99,-0.04,-0.07,-2.17,-0.91
-0.16,0.99,-0.04,-0.14,-2.1,-0.91
-0.16,0.99,-0.04,-0.14,-2.03,-0.91
-0.16,0.99,-0.04,-0.42,-1.89,-1.19
-0.16,0.99,-0.04,-0.21,-1.96,-1.05
-0.15,0.99,-0.03,0.14,-1.96,-0.91
-0.16,0.99,-0.03,-0.28,-1.89,-0.84
-0.16,0.99,-0.03,0.14,-2.17,-0.77
-0.16,0.99,-0.04,0.21,-2.03,-0.77
-0.16,0.99,-0.03,0.28,-2.17,-0.77
-0.16,0.99,-0.04,0.07,-2.17,-0.84
-0.16,0.99,-0.04,0.14,-2.38,-1.12
-0.16,0.99,-0.04,0.14,-2.45,-0.91
-0.16,0.99,-0.04,0,-2.24,-1.05
-0.16,0.99,-0.04,0.07,-2.38,-0.91
-0.16,0.99,-0.04,0.07,-2.45,-0.91
-0.16,0.99,-0.04,0.21,-2.59,-0.84
-0.16,0.99,-0.04,-0.07,-2.59,-0.84
-0.16,0.99,-0.04,-0.14,-2.59,-0.84
-0.16,0.99,-0.04,-0.35,-2.31,-0.77
-0.16,0.99,-0.04,-0.56,-2.24,-0.7
-0.16,0.99,-0.04,-0.14,-2.1,-0.63
-0.16,0.99,-0.04,-0.35,-2.03,-0.91
-0.16,0.99,-0.04,-0.28,-2.03,-0.98
-0.16,0.99,-0.03,0.07,-2.17,-0.56
-0.16,0.99,-0.03,0.07,-2.38,-0.84
-0.16,0.99,-0.03,0.28,-2.94,-0.56
-0.16,0.99,-0.03,0.07,-2.87,-0.77
-0.16,0.99,-0.03,0.14,-2.94,-0.7
-0.15,0.99,-0.03,0.07,-3.15,-0.77
-0.15,0.99,-0.03,0.49,-3.22,-0.7
-0.15,0.99,-0.03,0.49,-3.01,-0.77
-0.15,0.99,-0.04,0.56,-2.87,-0.56
-0.15,0.99,-0.04,0.56,-2.52,-0.7
-0.16,0.99,-0.04,0.7,-2.38,-0.77
-0.16,0.99,-0.04,0.84,-2.31,-0.63
-0.16,0.99,-0.04,0.63,-2.24,-0.7
-0.16,0.99,-0.04,0.77,-2.45,-0.56
-0.16,0.99,-0.03,0.84,-2.59,-0.49
-0.16,0.99,-0.04,0.77,-2.52,-0.49
-0.16,0.99,-0.04,0.77,-2.59,-0.63
-0.15,0.99,-0.04,0.7,-2.59,-0.56
-0.16,0.99,-0.04,0.56,-2.59,-0.56
-0.16,0.99,-0.04,0.56,-2.59,-0.56
-0.15,0.99,-0.04,0.7,-2.59,-0.56
-0.15,0.99,-0.04,0.49,-2.38,-0.63
-0.15,0.99,-0.04,0.42,-2.31,-0.56
-0.15,0.99,-0.04,0.77,-2.31,-0.63
-0.15,0.99,-0.04,0.42,-2.24,-0.7
-0.16,0.99,-0.04,0.42,-2.52,-0.63
-0.15,0.99,-0.04,0.14,-2.45,-0.77
-0.15,0.99,-0.04,0.14,-2.66,-0.77
-0.15,0.99,-0.04,-0.14,-2.38,-0.84
-0.15,0.99,-0.04,-0.14,-2.52,-0.84
-0.15,0.99,-0.04,-0.14,-2.31,-0.98
-0.15,0.99,-0.04,-0.35,-2.24,-0.98
-0.15,0.99,-0.04,-0.7,-1.75,-1.19
-0.16,0.99,-0.04,-0.42,-1.82,-0.98
-0.16,0.99,-0.04,-0.63,-1.68,-0.91
-0.16,0.99,-0.03,-0.28,-1.47,-0.84
-0.16,0.99,-0.03,-0.49,-1.61,-0.84
-0.15,0.99,-0.03,-0.35,-1.68,-0.91
-0.15,0.99,-0.03,-0.56,-1.68,-0.91
-0.15,0.99,-0.04,-0.14,-2.03,-0.91
-0.15,0.99,-0.04,-0.21,-1.96,-1.05
-0.15,0.99,-0.04,-0.35,-1.96,-0.98
-0.16,0.99,-0.04,-0.07,-2.03,-1.05
-0.16,0.99,-0.04,-0.14,-2.1,-0.91
-0.16,0.99,-0.04,-0.14,-1.82,-0.98
-0.16,0.99,-0.04,0.14,-2.03,-0.77
-0.16,0.99,-0.03,-0.14,-1.96,-0.91
-0.16,0.99,-0.03,-0.07,-1.96,-0.77
-0.16,0.99,-0.04,0,-2.24,-0.63
-0.16,0.99,-0.04,0.07,-2.31,-0.7
-0.16,0.99,-0.04,0.14,-2.52,-0.84
-0.16,0.99,-0.03,-0.35,-2.59,-0.91
-0.16,0.99,-0.03,0.14,-2.87,-0.7
-0.15,0.99,-0.04,0.21,-3.01,-0.77
-0.15,0.99,-0.03,0.07,-2.87,-0.7
-0.16,0.99,-0.04,0.28,-2.94,-0.77
-0.16,0.99,-0.04,0.21,-2.66,-0.84
-0.15,0.99,-0.04,0.28,-2.59,-0.98
-0.16,0.99,-0.04,0.49,-2.73,-0.7
-0.15,0.99,-0.04,0.21,-2.52,-0.7
-0.15,0.99,-0.04,0,-2.52,-0.84
-0.15,0.99,-0.04,0.28,-2.66,-0.77
-0.16,0.99,-0.04,0.07,-2.52,-0.77
-0.15,0.99,-0.03,0,-2.45,-0.77
-0.15,0.99,-0.04,-0.07,-2.38,-0.91
-0.15,0.99,-0.04,0.35,-2.59,-0.63
-0.16,0.99,-0.03,-0.14,-2.38,-0.98
-0.15,0.99,-0.03,-0.21,-2.38,-0.91
-0.15,0.99,-0.03,0.14,-2.38,-0.77
-0.15,0.99,-0.03,0.21,-2.24,-0.91
-0.16,0.99,-0.03,0.35,-2.31,-0.84
-0.15,0.99,-0.03,0.42,-2.31,-0.91
-0.16,0.99,-0.03,0.28,-2.17,-0.84
-0.16,0.99,-0.04,0.56,-2.38,-0.84
-0.16,0.99,-0.03,0.84,-2.59,-0.77
-0.16,0.99,-0.04,0.49,-2.52,-0.84
-0.16,0.99,-0.04,0.42,-2.59,-0.63
-0.15,0.99,-0.04,0.42,-2.52,-0.77
-0.16,0.99,-0.04,0.07,-2.24,-0.7
-0.15,0.99,-0.04,0.35,-2.38,-0.7
-0.15,0.99,-0.04,0.56,-2.52,-0.56
-0.16,0.99,-0.04,0.35,-2.24,-0.56
-0.15,0.99,-0.04,0.42,-2.45,-0.7
-0.15,0.99,-0.04,0.21,-2.1,-0.84
-0.15,0.99,-0.04,0.42,-2.31,-0.7
-0.15,0.99,-0.04,0.21,-2.24,-0.77
-0.16,0.99,-0.04,0.35,-2.31,-0.7
-0.16,0.99,-0.04,0.21,-2.24,-0.84
-0.15,0.99,-0.04,0.07,-2.17,-0.63
-0.16,0.99,-0.04,0.07,-2.45,-0.84
-0.16,0.99,-0.04,0.14,-2.31,-0.77
-0.16,0.99,-0.04,-0.07,-2.24,-0.77
-0.16,0.99,-0.04,0.14,-2.38,-0.7
-0.16,0.99,-0.04,0.14,-2.31,-0.77
-0.15,0.99,-0.03,0.07,-2.24,-0.91
-0.16,0.99,-0.04,0,-2.1,-0.77
-0.16,0.99,-0.04,0.21,-2.24,-0.7
-0.16,0.99,-0.04,0,-2.38,-0.56
-0.16,0.99,-0.03,-0.07,-2.31,-0.77
-0.15,0.99,-0.03,0,-2.52,-0.77
-0.16,0.99,-0.04,0.07,-2.66,-0.84
-0.15,0.99,-0.04,0.28,-2.8,-0.56
-0.15,0.99,-0.04,0,-2.66,-0.91
-0.15,0.99,-0.04,0.28,-2.59,-0.84
-0.15,0.99,-0.04,-0.14,-2.52,-0.98
-0.15,0.99,-0.04,-0.14,-2.45,-1.12
-0.15,0.99,-0.04,0.21,-2.59,-0.84
-0.15,0.99,-0.04,0.07,-2.38,-0.77
-0.16,0.99,-0.04,0.28,-2.45,-0.84
-0.16,0.99,-0.04,-0.07,-2.17,-0.77
-0.16,0.99,-0.03,-0.07,-2.17,-0.84
-0.16,0.99,-0.04,0.35,-2.38,-0.56
-0.16,0.99,-0.04,0.14,-2.52,-0.63
-0.16,0.99,-0.04,-0.14,-2.45,-0.84
-0.15,0.99,-0.03,-0.07,-2.8,-0.7
-0.16,0.99,-0.03,0.14,-2.87,-0.63
-0.16,0.99,-0.04,0.07,-2.94,-0.7
-0.15,0.99,-0.04,0.14,-2.66,-0.77
-0.15,0.99,-0.04,0.21,-2.73,-0.91
-0.15,0.99,-0.04,0.35,-2.59,-0.77
-0.15,0.99,-0.04,0.42,-2.38,-0.7
-0.15,0.99,-0.04,0.35,-2.24,-0.63
-0.15,0.99,-0.04,0.28,-2.24,-0.7
-0.15,0.99,-0.04,0.07,-1.89,-0.98
-0.15,0.99,-0.04,-17.64,-1.96,-0.91
-0.15,0.99,-0.03,0.28,-1.89,-0.7
-0.15,0.99,-0.04,0.42,-1.89,-0.77
-0.16,0.99,-0.04,0.42,-2.1,-0.77
-0.16,0.99,-0.03,0.35,-1.82,-0.77
-0.16,0.99,-0.03,0.42,-1.89,-0.77
-0.16,0.99,-0.03,0.49,-2.24,-0.56
-0.15,0.99,-0.03,0.35,-2.17,-0.77
-0.15,0.99,-0.04,0.28,-2.24,-0.7
-0.15,0.99,-0.04,0.35,-2.31,-0.7
-0.15,0.99,-0.04,0.35,-2.24,-0.7
-0.15,0.99,-0.04,0.14,-2.17,-0.7
-0.15,0.99,-0.04,0.42,-2.24,-0.7
-0.15,0.99,-0.04,0.14,-1.96,-0.98
-0.16,1,-0.04,-0.14,-2.24,-0.98
-0.16,0.99,-0.04,-0.35,-2.38,-0.91
-0.16,0.99,-0.04,-0.28,-2.45,-0.91
-0.15,0.99,-0.04,-0.63,-2.24,-1.05
-0.16,0.99,-0.04,-0.49,-2.66,-0.91
-0.15,0.99,-0.04,-0.77,-2.52,-1.12
-0.15,0.99,-0.04,-0.56,-2.94,-0.84
-0.15,0.99,-0.04,-0.56,-2.66,-0.91
-0.15,0.99,-0.04,-0.77,-2.38,-0.98
-0.15,0.99,-0.04,-0.49,-2.66,-0.98
-0.16,0.99,-0.04,-0.56,-2.45,-1.05
-0.16,0.99,-0.03,-0.35,-2.31,-0.98
-0.16,0.99,-0.03,0.07,-2.31,-0.77
-0.16,0.99,-0.03,-0.07,-2.24,-0.98
-0.16,0.99,-0.03,0.14,-2.52,-0.77
-0.16,0.99,-0.03,0.14,-2.59,-0.77
-0.16,0.99,-0.03,0,-2.59,-0.77
-0.16,0.99,-0.03,0.14,-2.8,-0.7
-0.15,0.99,-0.03,0.28,-2.94,-0.56
-0.15,0.99,-0.03,0.56,-2.66,-0.77
-0.15,0.99,-0.03,0.77,-2.66,-0.56
-0.15,0.99,-0.03,0.77,-2.66,-0.63
-0.15,0.99,-0.03,1.05,-2.66,-0.56
-0.15,0.99,-0.03,0.84,-2.52,-0.7
-0.15,0.99,-0.03,1.26,-2.59,-0.49
-0.15,0.99,-0.04,1.05,-2.38,-0.7
-0.15,0.99,-0.04,1.12,-2.38,-0.7
-0.15,0.99,-0.04,0.91,-2.38,-0.56
-0.16,0.99,-0.04,0.7,-2.38,-0.7
-0.16,0.99,-0.04,0.7,-2.24,-0.63
-0.16,0.99,-0.04,0.42,-2.03,-0.7
-0.16,0.99,-0.04,0.28,-2.03,-0.63
-0.15,0.99,-0.04,0.35,-2.03,-0.7
-0.16,0.99,-0.04,0.28,-1.96,-0.84
-0.15,0.99,-0.04,0.21,-2.17,-0.7
-0.15,0.99,-0.04,0.28,-2.31,-0.63
-0.16,0.99,-0.04,0.14,-2.45,-0.77
-0.16,0.99,-0.04,-0.14,-2.59,-0.84
-0.16,0.99,-0.04,0,-2.8,-0.77
-0.15,0.99,-0.04,-0.21,-2.73,-0.98
-0.15,0.99,-0.04,-0.35,-2.73,-1.05
-0.15,0.99,-0.04,-0.28,-2.8,-0.84
-0.15,0.99,-0.04,-0.14,-2.8,-0.84
-0.15,0.99,-0.04,-0.49,-2.8,-0.84
-0.15,0.99,-0.04,-0.35,-2.59,-0.91
-0.15,0.99,-0.04,-0.56,-2.45,-1.05
-0.15,0.99,-0.04,-0.63,-2.24,-1.05
-0.15,0.99,-0.03,-0.14,-2.31,-0.84
-0.16,0.99,-0.04,-0.28,-2.03,-0.98
-0.15,0.99,-0.03,-0.14,-1.89,-0.84
-0.15,0.99,-0.03,-0.07,-2.1,-0.7
-0.16,0.99,-0.03,0.14,-1.82,-0.77
-0.16,0.99,-0.04,0.42,-2.1,-0.7
-0.16,0.99,-0.04,0,-1.96,-0.84
-0.16,0.99,-0.04,0.35,-2.1,-0.77
-0.16,0.99,-0.03,0.35,-2.24,-0.77
-0.15,0.99,-0.03,0.35,-2.24,-0.63
-0.15,0.99,-0.03,0.42,-2.24,-0.77
-0.15,0.99,-0.03,0.28,-2.31,-0.77
-0.15,0.99,-0.04,0.28,-2.24,-0.77
-0.15,0.99,-0.03,0.35,-2.1,-0.77
-0.16,0.99,-0.04,0.49,-2.31,-0.77
-0.15,0.99,-0.04,0.21,-2.03,-0.91
-0.16,0.99,-0.04,0.42,-1.96,-0.84
-0.16,0.99,-0.04,0.56,-2.1,-0.77
-0.16,0.99,-0.04,0.49,-2.03,-0.7
-0.16,0.99,-0.04,0.49,-2.03,-0.63
-0.16,0.99,-0.03,0.28,-2.03,-0.63
-0.16,0.99,-0.03,0.49,-2.24,-0.63
-0.16,0.99,-0.03,0.21,-2.52,-0.63
-0.16,0.99,-0.03,0.91,-3.01,-0.35
-0.16,0.99,-0.03,0.56,-2.59,-0.49
-0.16,0.99,-0.03,0.84,-2.73,-0.49
-0.15,0.99,-0.03,0.84,-2.59,-0.56
-0.15,0.99,-0.03,1.05,-2.24,-0.7
-0.15,0.99,-0.04,0.98,-2.17,-0.49
-0.15,0.99,-0.04,1.26,-2.31,-0.35
-0.15,0.99,-0.04,1.12,-2.38,-0.42
-0.16,0.99,-0.04,1.19,-2.59,-0.35
-0.16,0.99,-0.04,1.26,-3.01,-0.35
-0.15,0.99,-0.04,1.12,-3.01,-0.35
-0.16,0.99,-0.04,0.91,-2.94,-0.63
-0.16,0.99,-0.04,0.98,-3.08,-0.28
-0.15,0.99,-0.04,1.05,-3.08,-0.42
-0.16,0.99,-0.04,0.91,-3.15,-0.49
-0.16,0.99,-0.04,0.35,-2.94,-0.7
-0.15,0.99,-0.04,0.56,-3.08,-0.49
-0.15,0.99,-0.04,0.56,-3.15,-0.63
-0.15,0.99,-0.04,0.84,-3.15,-0.42
-0.15,0.99,-0.04,0.7,-3.01,-0.42
-0.15,0.99,-0.04,0.28,-2.45,-0.84
-0.15,1,-0.04,0.7,-2.66,-0.56
-0.15,0.99,-0.04,0.77,-2.87,-0.49
-0.15,0.99,-0.04,0.56,-2.66,-0.84
-0.15,0.99,-0.04,0.49,-2.66,-0.77
-0.15,0.99,-0.04,0.28,-2.73,-0.7
-0.15,0.99,-0.04,0.14,-2.45,-0.91
-0.15,0.99,-0.04,0.14,-2.38,-0.84
-0.15,0.99,-0.04,0.28,-2.45,-0.98
-0.15,0.99,-0.04,0.07,-2.03,-1.05
-0.15,0.99,-0.04,-0.21,-2.31,-0.98
-0.15,0.99,-0.04,-0.28,-2.24,-1.05
-0.15,0.99,-0.04,0,-2.38,-1.05
-0.15,0.99,-0.04,-0.07,-2.1,-1.05
-0.15,0.99,-0.04,0,-2.1,-1.12
-0.16,0.99,-0.03,0.07,-2.24,-0.84
-0.15,0.99,-0.04,0.28,-2.31,-0.98
-0.15,0.99,-0.04,0.56,-2.45,-1.05
-0.15,0.99,-0.04,0.56,-2.66,-0.98
-0.15,0.99,-0.04,0.49,-2.8,-1.05
-0.16,0.99,-0.04,0.49,-2.73,-1.19
-0.16,0.99,-0.04,0.35,-3.01,-0.98
-0.16,0.99,-0.03,0.56,-2.8,-0.91
-0.16,0.99,-0.04,0.91,-2.8,-0.91
-0.16,0.99,-0.04,1.12,-2.94,-0.7
-0.15,0.99,-0.04,1.26,-2.94,-0.63
-0.15,1,-0.04,1.54,-3.43,-0.7
-0.15,0.99,-0.04,1.4,-3.64,-0.77
-0.15,0.99,-0.04,1.26,-3.78,-0.84
-0.16,0.99,-0.04,1.26,-4.13,-0.91
-0.15,0.99,-0.04,1.19,-4.2,-0.49
-0.16,0.99,-0.04,1.19,-3.92,-0.63
-0.15,0.99,-0.04,0.91,-3.85,-0.77
-0.15,0.99,-0.04,1.4,-3.85,-0.77
-0.16,0.99,-0.04,1.47,-4.06,-0.56
-0.16,0.99,-0.04,1.4,-3.92,-0.49
-0.15,0.99,-0.04,1.33,-3.78,-0.84
-0.16,0.99,-0.04,1.05,-3.99,-0.63
-0.16,0.99,-0.04,1.12,-3.85,-0.7
-0.15,0.99,-0.04,0.98,-3.57,-0.77
-0.15,0.99,-0.04,0.77,-3.29,-0.91
-0.16,0.99,-0.04,0.84,-3.43,-0.7
-0.16,0.99,-0.05,0.56,-3.43,-1.12
-0.16,0.99,-0.04,0.7,-3.36,-0.84
-0.15,0.99,-0.04,0.49,-3.29,-0.77
-0.15,0.99,-0.04,0.42,-2.94,-0.77
-0.15,0.99,-0.04,0.63,-2.8,-0.84
-0.15,0.99,-0.04,0.56,-2.59,-0.91
-0.15,0.99,-0.04,0.91,-2.73,-0.7
-0.15,0.99,-0.04,0.84,-2.45,-0.77
-0.15,0.99,-0.04,1.12,-2.66,-0.63
-0.15,0.99,-0.04,1.12,-2.59,-0.63
-0.15,0.99,-0.04,1.05,-2.45,-0.7
-0.15,0.99,-0.04,1.4,-2.52,-0.63
-0.16,0.99,-0.04,0.77,-2.45,-0.77
-0.15,0.99,-0.04,1.26,-2.52,-0.77
-0.16,0.99,-0.05,1.54,-2.59,-0.56
-0.15,0.99,-0.03,1.47,-2.38,-0.56
-0.16,0.99,-0.04,1.61,-2.59,-0.42
-0.16,0.99,-0.04,1.54,-2.52,-0.63
-0.16,0.99,-0.04,1.47,-2.52,-0.49
-0.16,0.99,-0.04,1.89,-2.66,-0.28
-0.16,0.99,-0.04,1.61,-2.52,-0.35
-0.16,0.99,-0.04,1.75,-2.73,-0.35
-0.16,0.99,-0.04,1.61,-2.8,-0.35
-0.16,0.99,-0.05,1.54,-2.8,-0.28
-0.15,0.99,-0.05,1.61,-2.87,-0.35
-0.15,0.99,-0.04,1.96,-3.01,-0.14
-0.15,0.99,-0.05,1.61,-3.08,-0.35
-0.15,0.99,-0.05,1.54,-2.8,-0.49
-0.15,0.99,-0.05,1.54,-2.94,-0.42
-0.15,0.99,-0.05,1.4,-2.59,-0.7
-0.15,0.99,-0.05,1.12,-3.01,-0.42
-0.15,0.99,-0.06,1.33,-3.01,-0.49
-0.15,0.99,-0.06,1.05,-2.73,-0.7
-0.15,0.99,-0.05,0.98,-2.66,-0.56
-0.15,0.99,-0.05,0.98,-2.59,-0.63
-0.15,0.99,-0.05,0.91,-2.45,-0.7
-0.15,0.99,-0.05,0.91,-2.59,-0.49
-0.15,0.99,-0.05,0.63,-2.24,-0.7
-0.15,0.99,-0.05,0.63,-2.45,-0.7
-0.15,0.99,-0.05,0.42,-2.45,-0.77
-0.15,0.99,-0.05,0.42,-2.45,-0.63
-0.15,0.99,-0.05,0.21,-2.31,-0.63
-0.15,0.99,-0.05,0.35,-2.31,-0.91
-0.15,0.99,-0.05,0.28,-2.17,-0.84
-0.16,0.99,-0.05,0.14,-2.17,-1.05
-0.15,0.99,-0.05,0.28,-2.31,-0.91
-0.16,0.99,-0.05,0.21,-2.31,-0.91
-0.15,0.99,-0.05,0.35,-2.24,-1.05
-0.16,0.99,-0.05,0.42,-2.52,-0.84
-0.15,0.99,-0.04,0.42,-2.31,-0.77
-0.16,0.99,-0.05,0.35,-2.31,-0.84
-0.16,0.99,-0.05,0.07,-2.52,-0.98
-0.15,0.99,-0.05,0.77,-2.87,-0.7
-0.15,0.99,-0.05,0.42,-2.73,-0.84
-0.15,0.99,-0.05,0.35,-2.8,-0.84
-0.15,0.99,-0.05,0.14,-2.73,-1.05
-0.15,0.99,-0.05,0.28,-2.8,-0.63
-0.15,0.99,-0.05,0,-2.59,-0.98
-0.15,0.99,-0.05,0.14,-2.73,-0.91
-0.15,0.99,-0.05,0.21,-2.66,-0.7
-0.14,1,-0.05,-0.14,-2.59,-0.77
-0.15,0.99,-0.05,0.07,-2.66,-1.19
-0.16,0.98,-0.05,-0.07,-2.66,-0.98
-0.15,0.99,-0.05,0.35,-2.38,-0.91
-0.15,0.99,-0.05,0.28,-2.1,-0.91
-0.16,0.99,-0.05,0.14,-2.17,-0.91
-0.15,0.99,-0.05,-0.07,-2.1,-0.98
-0.16,0.99,-0.05,-0.07,-2.03,-0.84
-0.15,0.99,-0.04,0,-2.1,-0.7
-0.15,0.99,-0.04,0.14,-1.96,-0.77
-0.15,0.99,-0.05,0.56,-1.89,-0.77
-0.15,0.99,-0.05,0.77,-2.17,-0.7
-0.15,0.99,-0.04,0.42,-2.24,-0.91
-0.15,0.99,-0.05,0.84,-2.38,-0.91
-0.15,0.99,-0.05,0.84,-2.52,-0.91
-0.15,0.99,-0.05,1.05,-2.59,-0.84
-0.16,0.99,-0.05,1.05,-2.52,-0.84
-0.15,0.99,-0.05,1.12,-2.87,-0.63
-0.16,0.99,-0.05,0.56,-2.66,-0.91
-0.15,0.99,-0.05,0.84,-2.87,-0.77
-0.15,0.99,-0.05,0.91,-2.73,-0.77
-0.15,0.99,-0.05,0.56,-2.59,-0.91
-0.15,0.99,-0.05,0.28,-2.73,-0.77
-0.15,0.99,-0.05,0.49,-2.59,-0.77
-0.15,0.99,-0.05,0.14,-2.31,-0.91
-0.15,0.99,-0.05,0.7,-2.59,-0.63
-0.15,0.99,-0.05,0.28,-2.31,-0.84
-0.15,0.99,-0.05,0.35,-2.24,-0.84
-0.15,0.99,-0.05,0.28,-2.17,-0.84
-0.15,0.99,-0.05,0.28,-2.03,-0.84
-0.15,0.99,-0.05,0.21,-2.17,-0.98
-0.15,0.99,-0.05,0.21,-2.45,-0.77
-0.15,0.99,-0.05,0.14,-2.38,-0.98
-0.15,0.99,-0.05,-0.14,-2.31,-0.98
-0.15,0.99,-0.05,0.07,-2.66,-0.98
-0.15,0.99,-0.05,-0.07,-2.66,-0.91
-0.15,0.99,-0.05,-0.21,-2.66,-0.77
-0.15,0.99,-0.06,-0.21,-2.45,-0.98
-0.15,0.99,-0.05,-0.42,-2.31,-0.98
-0.15,0.99,-0.05,-0.49,-2.17,-0.91
-0.15,0.99,-0.05,-0.7,-1.89,-1.19
-0.15,0.99,-0.05,-0.56,-1.82,-0.91
-0.15,0.99,-0.05,-0.28,-2.03,-0.84
-0.15,0.99,-0.05,-0.49,-1.61,-1.12
-0.16,0.99,-0.05,-0.49,-1.89,-0.98
-0.16,0.99,-0.05,-0.35,-1.82,-0.98
-0.16,0.99,-0.05,-0.56,-2.03,-1.05
-0.16,0.99,-0.05,-0.42,-2.1,-1.12
-0.15,0.99,-0.05,-0.14,-2.31,-0.84
-0.15,0.99,-0.05,-0.21,-2.24,-1.05
-0.16,0.99,-0.05,-0.21,-2.31,-0.98
-0.15,0.99,-0.05,0.14,-2.52,-0.7
-0.15,0.99,-0.05,-0.28,-2.31,-1.05
-0.15,0.99,-0.04,0,-2.31,-0.91
-0.15,0.99,-0.05,0.35,-2.52,-0.77
-0.15,0.99,-0.05,0.21,-2.45,-0.63
-0.16,0.99,-0.05,0.07,-2.31,-0.77
-0.16,0.99,-0.05,0.35,-2.52,-0.63
-0.15,0.99,-0.05,0.42,-2.24,-0.7
-0.16,0.99,-0.05,0.42,-2.24,-0.77
-0.16,0.99,-0.05,0.42,-2.17,-0.7
-0.16,0.99,-0.05,0.21,-2.17,-0.63
-0.16,0.99,-0.05,0.42,-2.38,-0.63
-0.15,0.99,-0.05,0.28,-2.31,-0.91
-0.15,0.99,-0.05,0.35,-2.59,-0.56
-0.15,0.99,-0.05,0.21,-2.45,-0.7
-0.15,0.99,-0.05,0.42,-2.73,-0.56
-0.15,0.99,-0.05,0.21,-2.52,-0.7
-0.15,0.99,-0.05,0.42,-2.66,-0.91
-0.15,0.99,-0.05,0.35,-2.59,-0.91
-0.15,0.99,-0.05,0.49,-2.59,-0.7
-0.15,0.99,-0.05,0.35,-2.66,-0.77
-0.15,0.99,-0.05,0.35,-2.73,-0.91
-0.15,0.99,-0.05,0.14,-2.66,-0.91
-0.16,0.99,-0.05,0.28,-2.52,-0.77
-0.16,0.99,-0.05,0.07,-2.31,-0.98
-0.15,0.99,-0.05,0.14,-2.38,-0.7
-0.15,0.99,-0.05,0.28,-2.31,-0.7
-0.15,0.99,-0.05,0.21,-2.1,-0.84
-0.15,0.99,-0.04,0.91,-2.52,-0.49
-0.15,1,-0.05,0.7,-2.52,-0.7
-0.15,0.99,-0.05,0.77,-2.52,-0.98
-0.15,0.99,-0.05,0.84,-2.87,-0.98
-0.16,0.99,-0.05,0.77,-2.66,-0.91
-0.16,0.99,-0.05,0.42,-2.66,-0.98
-0.15,0.99,-0.05,0.21,-2.87,-0.91
-0.15,0.99,-0.05,-0.07,-2.52,-1.12
-0.15,0.99,-0.06,-0.07,-2.66,-0.84
-0.16,0.99,-0.05,-0.21,-2.73,-0.77
-0.15,0.99,-0.05,-0.07,-2.8,-0.63
-0.15,0.99,-0.05,0,-2.38,-0.98
-0.15,0.99,-0.05,-0.49,-2.31,-1.12
-0.15,0.99,-0.05,-0.35,-2.45,-0.98
-0.15,0.99,-0.05,-0.07,-2.66,-0.77
-0.15,0.99,-0.05,-0.35,-2.38,-1.05
-0.15,0.99,-0.05,-0.28,-2.38,-0.84
-0.15,0.99,-0.05,-0.07,-2.31,-1.12
-0.15,0.99,-0.05,-0.07,-2.45,-0.98
-0.15,0.99,-0.05,0.14,-2.52,-0.98
-0.15,0.99,-0.04,-0.21,-2.24,-1.12
-0.15,0.99,-0.05,0.35,-2.31,-1.12
-0.16,0.99,-0.05,0.07,-2.66,-0.91
-0.14,0.99,-0.04,-0.07,-2.38,-1.19
-0.15,0.99,-0.05,0.07,-2.52,-0.98
-0.15,0.99,-0.05,-0.14,-2.52,-1.05
-0.15,0.99,-0.05,0.21,-2.52,-0.91
-0.15,0.99,-0.05,0.07,-2.24,-0.98
-0.15,0.99,-0.05,0.07,-2.38,-0.98
-0.15,0.99,-0.05,0.21,-2.45,-0.91
-0.15,0.99,-0.05,0,-2.45,-0.7
-0.16,0.99,-0.05,-0.35,-2.24,-0.98
-0.15,0.99,-0.05,-0.21,-2.03,-0.91
-0.16,0.99,-0.05,-0.21,-2.1,-1.05
-0.16,0.99,-0.05,-0.35,-2.03,-1.05
-0.15,0.98,-0.05,0.35,-1.96,-0.91
-0.16,1,-0.05,0,-2.03,-0.77
-0.15,0.99,-0.05,-0.07,-2.03,-1.12
-0.16,0.99,-0.05,-0.14,-2.31,-0.91
-0.15,0.99,-0.05,0,-2.24,-0.77
-0.16,1,-0.05,0.07,-2.59,-0.84
-0.15,0.99,-0.05,-0.14,-2.66,-0.98
-0.15,0.99,-0.05,-0.07,-2.94,-0.91
-0.15,0.99,-0.05,-0.07,-2.87,-1.05
-0.15,0.99,-0.05,-0.28,-2.52,-1.12
-0.15,0.99,-0.05,-0.42,-2.24,-1.12
-0.15,0.99,-0.05,-0.49,-2.1,-1.05
-0.15,0.99,-0.05,-0.35,-2.17,-0.98
-0.15,0.99,-0.05,-0.35,-2.03,-0.98
-0.16,0.99,-0.05,-0.42,-2.03,-0.91
-0.15,0.99,-0.05,-0.28,-1.68,-1.12
-0.16,0.99,-0.04,-0.07,-1.75,-0.91
-0.16,0.99,-0.04,0.07,-1.68,-0.84
-0.16,0.99,-0.04,0.07,-1.54,-0.91
-0.16,0.99,-0.04,0.49,-1.96,-0.49
-0.16,0.99,-0.04,0.56,-2.03,-0.49
-0.16,0.99,-0.04,0.63,-2.24,-0.49
-0.16,0.99,-0.04,0.63,-2.38,-0.49
-0.16,0.99,-0.04,0.7,-2.59,-0.49
-0.16,0.99,-0.05,0.35,-2.73,-0.42
-0.15,0.99,-0.05,0.77,-2.87,-0.56
-0.15,0.99,-0.05,0.77,-2.8,-0.56
-0.15,0.99,-0.05,0.56,-2.38,-0.98
-0.15,0.99,-0.05,0.49,-2.8,-0.7
-0.15,0.99,-0.06,0.35,-2.45,-0.77
-0.15,0.99,-0.06,0.42,-2.45,-0.7
-0.15,0.99,-0.06,0.07,-2.17,-0.7
-0.15,0.99,-0.06,0.07,-1.89,-0.77
-0.15,0.99,-0.06,0,-1.75,-1.05
-0.15,0.99,-0.05,-0.07,-1.68,-0.98
-0.16,0.99,-0.05,-0.42,-1.61,-1.05
-0.16,0.99,-0.05,-0.28,-1.68,-0.98
-0.16,0.99,-0.05,-0.7,-1.82,-1.05
-0.16,0.99,-0.05,-0.77,-1.89,-0.91
-0.16,0.99,-0.05,-0.84,-2.1,-1.12
-0.16,0.99,-0.05,-0.84,-2.1,-1.05
-0.16,0.99,-0.04,-0.77,-2.45,-0.98
-0.15,0.99,-0.05,-0.77,-2.52,-1.05
-0.16,0.99,-0.04,-0.77,-2.38,-1.12
-0.15,0.99,-0.04,-0.21,-2.73,-0.98
-0.15,0.99,-0.05,-0.63,-2.24,-1.05
-0.15,0.99,-0.04,-0.35,-2.52,-0.91
-0.15,0.99,-0.04,0,-2.24,-1.05
-0.15,0.99,-0.05,0.14,-2.24,-0.84
-0.16,0.99,-0.04,0.35,-2.24,-0.77
-0.16,0.99,-0.04,0.35,-2.1,-0.77
-0.16,0.99,-0.05,0.35,-2.1,-0.98
-0.16,0.99,-0.04,0.77,-2.52,-0.77
-0.16,0.99,-0.04,0.77,-2.73,-0.42
-0.16,0.99,-0.04,0.91,-2.52,-0.56
-0.16,0.99,-0.05,0.91,-2.66,-0.63
-0.16,0.99,-0.05,0.63,-2.66,-0.7
-0.15,0.99,-0.05,0.7,-2.66,-0.63
-0.15,0.99,-0.05,0.77,-2.87,-0.7
-0.15,0.99,-0.05,0.56,-2.87,-0.56
-0.15,0.99,-0.05,0.28,-2.87,-0.63
-0.15,0.99,-0.05,0.14,-2.52,-0.84
-0.15,0.99,-0.05,0.14,-2.52,-0.91
-0.15,0.99,-0.05,0.21,-2.38,-0.84
-0.15,0.99,-0.05,0.07,-2.17,-0.84
-0.15,0.99,-0.05,0.07,-2.17,-0.7
-0.16,0.99,-0.05,0.14,-2.1,-0.84
-0.16,0.99,-0.05,0.14,-2.31,-0.84
-0.15,0.99,-0.05,-0.07,-2.17,-0.91
-0.15,0.99,-0.05,0,-2.38,-0.91
-0.16,0.99,-0.05,0.07,-2.45,-0.84
-0.16,0.99,-0.05,-0.21,-2.38,-0.98
-0.16,0.99,-0.05,-0.07,-2.52,-1.12
-0.15,0.99,-0.05,0.21,-2.52,-0.84
-0.15,0.99,-0.05,0.07,-2.66,-0.77
-0.15,0.99,-0.04,0.07,-2.45,-0.77
-0.16,0.99,-0.05,0.07,-2.38,-0.91
-0.16,0.99,-0.05,0.28,-2.38,-0.84
-0.15,0.99,-0.05,0.28,-2.45,-0.7
-0.15,0.99,-0.05,0.56,-2.45,-0.77
-0.16,0.99,-0.05,0.35,-2.52,-0.7
-0.16,0.99,-0.05,0.35,-2.45,-0.77
-0.16,0.99,-0.05,0.56,-2.59,-0.7
-0.15,0.99,-0.05,0.42,-2.45,-0.7
-0.15,0.99,-0.05,0.42,-2.31,-0.84
-0.15,0.99,-0.05,0.56,-2.52,-0.84
-0.15,0.99,-0.05,0.28,-2.31,-0.91
-0.15,0.99,-0.05,0.42,-2.66,-0.63
-0.15,0.99,-0.05,0.28,-2.31,-0.84
-0.15,0.99,-0.05,0.35,-2.38,-0.7
-0.16,0.99,-0.05,0.21,-2.31,-0.98
-0.15,0.99,-0.05,0,-2.38,-0.77
-0.15,0.99,-0.05,0.07,-2.45,-0.77
-0.15,0.99,-0.05,0.21,-2.38,-0.91
-0.15,0.99,-0.05,-0.21,-2.31,-0.91
-0.15,0.99,-0.05,-0.28,-2.17,-1.05
-0.15,0.99,-0.05,0,-2.31,-0.84
-0.15,0.99,-0.05,-0.07,-2.24,-0.98
-0.16,0.99,-0.05,0,-2.24,-0.84
-0.16,0.99,-0.05,-0.14,-2.24,-0.91
-0.15,0.99,-0.05,0.14,-2.31,-0.91
-0.16,0.99,-0.05,17.85,-2.38,-0.91
-0.16,0.99,-0.05,0,-2.31,-0.84
-0.15,0.99,-0.05,0.07,-2.45,-0.84
-0.16,0.99,-0.05,0.14,-2.38,-0.77
-0.15,0.99,-0.05,0.35,-2.52,-0.63
-0.15,0.99,-0.05,0.28,-2.52,-0.63
-0.15,0.99,-0.05,0.35,-2.38,-0.84
-0.15,0.99,-0.05,0.28,-2.52,-0.77
-0.16,0.99,-0.05,0.07,-2.38,-0.84
-0.16,0.99,-0.05,0.21,-2.59,-0.84
-0.15,0.99,-0.05,0.28,-2.45,-0.98
-0.15,0.99,-0.05,0.42,-2.66,-0.7
-0.16,0.99,-0.05,0.35,-2.24,-0.84
-0.15,0.99,-0.05,0.42,-2.24,-0.84
-0.15,0.99,-0.05,0,-2.31,-0.98
-0.15,0.99,-0.05,0.14,-2.31,-0.84
-0.15,0.99,-0.05,-0.14,-2.24,-0.91
-0.15,0.99,-0.05,-0.14,-2.24,-0.77
-0.15,0.99,-0.05,-0.07,-2.24,-0.77
-0.15,0.99,-0.05,0.14,-2.38,-0.91
-0.15,0.99,-0.05,-17.92,-2.24,-0.98
-0.15,0.99,-0.05,0.14,-2.45,-0.77
-0.16,0.99,-0.05,-0.14,-2.17,-0.98
-0.15,0.99,-0.05,0.14,-2.45,-0.77
-0.15,0.99,-0.05,-0.07,-2.31,-0.84
-0.15,0.99,-0.05,-0.07,-2.31,-0.77
-0.15,0.99,-0.05,0.21,-2.45,-0.63
-0.15,0.99,-0.05,0.07,-2.31,-0.77
-0.15,0.99,-0.05,0,-2.31,-0.84
-0.15,0.99,-0.05,0.14,-2.38,-0.77
-0.15,0.99,-0.05,0.14,-2.45,-0.77
-0.15,0.99,-0.05,0.21,-2.24,-0.63
-0.15,0.99,-0.05,0.07,-2.24,-0.77
-0.15,0.99,-0.05,0,-2.1,-1.12
-0.16,0.99,-0.05,0.49,-2.66,-0.7
-0.15,0.99,-0.05,0.21,-2.38,-0.7
-0.16,0.99,-0.05,0.07,-2.31,-0.84
-0.15,0.99,-0.05,0.35,-2.45,-0.84
-0.15,0.99,-0.05,-0.07,-2.31,-0.77
-0.15,0.99,-0.05,0.07,-2.52,-0.77
-0.16,0.99,-0.05,0.21,-2.45,-0.91
-0.16,0.99,-0.05,0.21,-2.45,-0.7
-0.15,0.99,-0.05,0.21,-2.38,-0.77
-0.15,0.99,-0.05,0.07,-2.31,-0.84
-0.15,0.99,-0.05,0.14,-2.52,-0.98
-0.15,0.99,-0.05,0.07,-2.31,-0.84
-0.15,0.99,-0.05,-0.07,-2.52,-0.7
-0.15,0.99,-0.05,0.14,-2.31,-0.7
-0.16,0.99,-0.05,0.21,-2.45,-0.77
-0.15,0.99,-0.05,0.07,-2.38,-0.77
-0.16,0.99,-0.05,0.28,-2.59,-0.77
-0.15,0.99,-0.05,0.07,-2.38,-0.84
-0.15,0.99,-0.05,0.28,-2.45,-0.77
-0.15,0.99,-0.05,0.07,-2.31,-0.84
-0.15,0.99,-0.05,0.35,-2.38,-0.84
-0.15,0.99,-0.05,0.14,-2.24,-0.84
-0.15,0.99,-0.05,0.28,-2.17,-0.77
-0.16,0.99,-0.05,0.14,-2.31,-0.91
-0.15,0.99,-0.05,0.35,-2.24,-0.84
-0.15,0.99,-0.05,0.14,-2.24,-0.63
-0.15,0.99,-0.05,0.42,-2.17,-0.7
-0.16,0.99,-0.05,0.28,-2.31,-0.77
-0.16,0.99,-0.05,0.28,-2.52,-0.7
-0.15,0.99,-0.05,0.14,-2.38,-0.84
-0.15,0.99,-0.05,0.35,-2.52,-0.77
-0.15,0.99,-0.05,0.35,-2.38,-0.7
-0.16,0.99,-0.05,0.35,-2.24,-0.84
-0.15,0.99,-0.05,0.49,-2.31,-0.84
-0.15,0.99,-0.05,0.42,-2.45,-0.77
-0.15,0.99,-0.05,0.07,-2.31,-0.84
-0.15,0.99,-0.05,0.35,-2.59,-0.84
-0.15,0.99,-0.05,0.21,-2.45,-0.91
-0.15,0.99,-0.05,-0.07,-2.73,-0.63
-0.15,0.99,-0.05,0,-2.52,-0.84
-0.15,0.99,-0.05,0.14,-2.45,-0.84
-0.15,0.99,-0.05,0.21,-2.38,-0.84
-0.15,0.99,-0.05,0.35,-2.59,-0.7
-0.15,0.99,-0.05,0.21,-2.31,-0.91
-0.15,0.99,-0.05,0.14,-2.59,-0.84
-0.15,0.99,-0.05,-0.07,-2.38,-0.84
-0.16,0.99,-0.05,-0.07,-2.38,-0.84
-0.15,0.99,-0.05,-0.14,-2.24,-0.84
-0.16,0.99,-0.05,-0.07,-2.31,-0.84
-0.16,0.99,-0.05,0.07,-2.17,-0.84
-0.16,0.99,-0.05,0.14,-2.38,-0.91
-0.16,0.99,-0.05,0.28,-2.45,-0.56
-0.15,0.99,-0.05,0.42,-2.38,-0.77
-0.16,0.99,-0.05,0.07,-2.45,-0.84
-0.15,0.99,-0.05,-0.07,-2.31,-0.91
-0.15,0.99,-0.05,0.35,-2.45,-0.63
-0.15,0.99,-0.05,0.14,-2.38,-0.84
-0.15,0.99,-0.05,0.35,-2.52,-0.7
-0.16,0.99,-0.05,0,-2.38,-0.84
-0.16,0.99,-0.05,0.28,-2.31,-0.7
-0.16,0.99,-0.05,0.56,-2.52,-0.63
-0.16,0.99,-0.05,0.35,-2.24,-0.77
-0.15,0.99,-0.05,0.21,-2.31,-0.77
-0.16,0.99,-0.05,0.14,-2.31,-0.77
-0.16,0.99,-0.05,0.21,-2.31,-0.98
-0.15,0.99,-0.05,0.28,-2.52,-0.7
-0.15,0.99,-0.05,0.28,-2.38,-0.77
-0.15,0.99,-0.05,0,-2.17,-0.91
-0.15,0.99,-0.05,0.07,-2.38,-0.77
-0.15,0.99,-0.05,0.14,-2.31,-0.91
-0.15,0.99,-0.05,-0.07,-2.31,-0.7
-0.15,0.99,-0.05,0.14,-2.45,-0.98
-0.15,0.99,-0.05,0,-2.31,-0.98
-0.15,0.99,-0.05,0,-2.45,-0.84
-0.15,0.99,-0.05,0.21,-2.38,-0.77
-0.16,0.99,-0.05,0.07,-2.38,-0.77
-0.15,0.99,-0.05,0.07,-2.38,-0.77
-0.15,0.99,-0.05,0.07,-2.31,-0.98
-0.15,0.99,-0.05,0.14,-2.45,-0.91
-0.15,0.99,-0.05,0.21,-2.45,-0.84
-0.15,0.99,-0.05,0.28,-2.38,-0.84
-0.15,0.99,-0.05,0.14,-2.31,-0.84
-0.15,0.99,-0.05,0.21,-2.31,-0.84
-0.15,0.99,-0.05,-0.07,-2.24,-0.91
-0.16,0.99,-0.05,0.14,-2.38,-0.84
-0.16,0.99,-0.05,0.21,-2.31,-0.84
-0.16,0.99,-0.05,0.14,-2.38,-0.7
-0.16,0.99,-0.05,0.42,-2.52,-0.7
-0.15,0.99,-0.05,0.21,-2.45,-0.84
-0.15,0.99,-0.05,0,-2.52,-0.98
-0.15,0.99,-0.05,0.14,-2.45,-0.7
-0.15,0.99,-0.05,0.35,-2.52,-0.84
-0.15,0.99,-0.05,0.21,-2.38,-0.91
-0.15,0.99,-0.05,0.07,-2.59,-0.77
-0.15,0.99,-0.05,0.21,-2.38,-0.7
-0.15,0.99,-0.05,0.14,-2.31,-0.91
-0.15,0.99,-0.05,0.28,-2.38,-0.7
-0.15,0.99,-0.05,0.49,-2.52,-0.77
-0.15,0.99,-0.05,0,-2.17,-0.84
-0.15,0.99,-0.05,0.14,-2.31,-0.77
-0.15,0.99,-0.05,0.07,-2.31,-0.84
-0.15,0.99,-0.05,0.07,-2.31,-0.84
-0.15,0.99,-0.05,0.14,-2.38,-0.84
-0.15,0.99,-0.05,-0.07,-2.31,-0.98
-0.16,0.99,-0.05,0.07,-2.31,-0.56
-0.16,0.99,-0.05,-0.21,-2.17,-0.98
-0.15,0.99,-0.05,0.07,-2.31,-0.91
-0.15,0.99,-0.05,0,-2.31,-0.91
-0.15,0.99,-0.05,0.14,-2.38,-0.77
-0.16,0.99,-0.05,0.07,-2.45,-0.77
-0.15,0.99,-0.05,0.28,-2.45,-0.77
-0.15,0.99,-0.05,0.35,-2.52,-0.84
-0.15,0.99,-0.05,0.14,-2.31,-0.63
-0.15,0.99,-0.05,0.21,-2.24,-0.98
-0.15,0.99,-0.05,0.14,-2.52,-0.63
-0.15,0.99,-0.05,0.42,-2.59,-0.7
-0.15,0.99,-0.05,0.07,-2.31,-0.84
-0.16,0.99,-0.05,0.07,-2.31,-0.91
-0.15,0.99,-0.05,0.07,-2.31,-0.84
-0.15,0.99,-0.05,0.07,-2.38,-0.91
-0.15,0.99,-0.05,0.21,-2.17,-0.84
-0.16,0.99,-0.05,0,-2.1,-0.98
-0.16,0.99,-0.05,0,-2.38,-0.84
-0.15,0.99,-0.05,-0.14,-2.31,-0.91
-0.16,0.99,-0.05,0,-2.38,-0.84
-0.16,0.99,-0.05,0.28,-2.52,-0.7
-0.16,0.99,-0.05,0,-2.24,-0.77
-0.16,0.99,-0.05,0.21,-2.31,-0.84
-0.15,0.99,-0.05,-17.85,-2.24,-0.98
-0.15,0.99,-0.05,0.42,-2.45,-0.63
-0.16,0.99,-0.05,0.35,-2.52,-0.63
-0.16,0.99,-0.05,0.21,-2.38,-0.84
-0.16,0.99,-0.05,0.49,-2.45,-0.77
-0.15,0.99,-0.05,0,-2.24,-0.7
-0.15,0.99,-0.05,0.35,-2.38,-0.84
-0.15,0.99,-0.05,0.35,-2.45,-0.7
-0.15,0.99,-0.05,0.14,-2.38,-0.84
-0.16,0.99,-0.05,0.28,-2.38,-0.77
-0.15,0.99,-0.05,0,-2.31,-0.98
-0.15,0.99,-0.05,0.21,-2.38,-0.63
-0.15,0.99,-0.05,0.35,-2.38,-0.84
-0.15,0.99,-0.05,0.14,-2.52,-0.77
-0.16,0.99,-0.05,0.07,-2.45,-0.84
-0.16,0.99,-0.05,0.07,-2.31,-0.77
-0.16,0.99,-0.05,0.28,-2.52,-0.77
-0.15,0.99,-0.05,0.28,-2.31,-0.7
-0.15,0.99,-0.05,0.07,-2.24,-0.98
-0.16,0.99,-0.05,0.35,-2.38,-0.91
-0.15,0.99,-0.05,0.14,-2.38,-0.84
-0.15,0.99,-0.05,-0.07,-2.24,-0.84
-0.16,0.99,-0.05,0,-2.17,-0.84
-0.15,0.99,-0.05,0.21,-2.52,-0.84
-0.15,0.99,-0.05,-0.14,-2.24,-0.98
-0.15,0.99,-0.05,0,-2.31,-0.84
-0.16,0.99,-0.05,0.07,-2.38,-0.7
-0.16,0.99,-0.05,0.21,-2.38,-0.7
-0.15,0.99,-0.05,0.14,-2.31,-0.77
-0.15,0.99,-0.05,0.21,-2.38,-0.91
-0.15,0.99,-0.05,-0.14,-2.1,-0.98
-0.15,0.99,-0.05,0.14,-2.38,-0.77
-0.15,0.99,-0.05,0,-2.38,-0.84
-0.16,0.99,-0.05,0.21,-2.45,-0.7
-0.16,0.99,-0.05,0.49,-2.59,-0.7
-0.16,0.99,-0.05,0.14,-2.38,-0.77
-0.15,0.99,-0.05,0.28,-2.38,-0.7
-0.15,0.99,-0.05,0.21,-2.45,-0.77
-0.15,0.99,-0.05,-0.07,-2.24,-1.05
-0.15,0.99,-0.05,0.21,-2.38,-0.91
-0.16,0.99,-0.05,0.21,-2.31,-0.7
-0.16,0.99,-0.05,0.14,-2.38,-0.91
-0.15,0.99,-0.05,0.49,-2.52,-0.7
-0.15,0.99,-0.05,0,-2.31,-0.91
-0.15,0.99,-0.05,0.14,-2.38,-0.77
-0.15,0.99,-0.05,0.07,-2.38,-0.77
-0.16,0.99,-0.05,0.14,-2.38,-0.7
-0.15,0.99,-0.05,0.07,-2.24,-0.84
-0.16,0.99,-0.05,0.07,-2.31,-0.77
-0.16,0.99,-0.05,0.14,-2.24,-0.84
-0.16,0.99,-0.05,0.14,-2.31,-0.84
-0.15,0.99,-0.05,0.14,-2.31,-0.98
-0.15,0.99,-0.05,0.28,-2.45,-0.7
-0.15,0.99,-0.05,0.14,-2.38,-0.77
-0.16,0.99,-0.05,0,-2.17,-0.84
-0.16,0.99,-0.05,0.21,-2.45,-0.77
-0.16,0.99,-0.05,0.14,-2.24,-0.84
-0.16,0.99,-0.05,0.35,-2.52,-0.91
-0.16,0.99,-0.05,0.28,-2.59,-0.98
-0.15,0.99,-0.05,-0.07,-2.45,-0.91
-0.16,0.99,-0.05,0.07,-2.59,-0.7
-0.15,0.99,-0.05,0.14,-2.24,-0.77
-0.15,0.99,-0.05,0.14,-2.52,-0.84
-0.15,0.99,-0.05,0.14,-2.31,-0.84
-0.15,0.99,-0.05,0.21,-2.38,-0.77
-0.15,0.99,-0.05,-0.07,-2.24,-0.7
-0.16,0.99,-0.05,0.14,-2.52,-0.7
-0.15,0.99,-0.05,0.21,-2.45,-0.77
-0.15,0.99,-0.05,0.63,-2.52,-0.63
-0.16,0.99,-0.05,0.28,-2.38,-0.84
-0.16,0.99,-0.05,0.28,-2.31,-0.77
-0.15,0.99,-0.05,0.28,-2.45,-0.77
-0.15,0.99,-0.05,0.28,-2.52,-0.77
-0.15,0.99,-0.05,0.28,-2.45,-0.84
-0.15,0.99,-0.05,0.35,-2.52,-0.77
-0.15,0.99,-0.05,0.28,-2.45,-0.7
-0.15,0.99,-0.05,0.21,-2.45,-0.77
-0.16,0.99,-0.05,0.21,-2.31,-0.84
-0.16,0.99,-0.05,0,-2.24,-0.98
-0.16,0.99,-0.05,0.21,-2.24,-0.77
-0.15,0.99,-0.05,0.14,-2.45,-0.7
-0.16,0.99,-0.05,0.28,-2.38,-0.7
-0.15,0.99,-0.05,-0.14,-2.24,-0.98
-0.16,0.99,-0.05,-0.07,-2.24,-0.98
-0.15,0.99,-0.05,0.28,-2.38,-1.05
-0.16,0.99,-0.05,0.28,-2.31,-0.91
-0.15,0.99,-0.05,0.21,-2.31,-0.84
-0.16,0.99,-0.05,0.35,-2.24,-0.84
-0.15,0.99,-0.05,0,-2.31,-0.84
-0.16,0.99,-0.05,0.28,-2.38,-0.7
-0.16,0.99,-0.05,0.07,-2.38,-0.91
-0.15,0.99,-0.05,0.14,-2.38,-0.91
-0.16,0.99,-0.05,0,-2.31,-0.84
-0.15,0.99,-0.05,0.14,-2.31,-0.91
-0.15,0.99,-0.05,0.21,-2.45,-0.84
-0.15,0.99,-0.05,0.35,-2.45,-0.7
-0.15,0.99,-0.05,0.28,-2.45,-0.77
-0.15,0.99,-0.05,0.21,-2.31,-0.84
-0.15,0.99,-0.05,0.21,-2.31,-0.91
-0.16,0.99,-0.05,0,-2.31,-0.7
-0.15,0.99,-0.05,0.14,-2.45,-0.7
-0.16,0.99,-0.05,0.14,-2.31,-0.84
-0.16,0.99,-0.05,0.28,-2.52,-0.77
-0.16,0.99,-0.05,0.28,-2.52,-0.77
-0.15,0.99,-0.05,0.07,-2.45,-0.91
-0.16,0.99,-0.05,0.28,-2.52,-0.49
-0.15,0.99,-0.05,0.07,-2.17,-0.98
-0.15,0.99,-0.05,0.21,-2.17,-0.91
-0.15,0.99,-0.05,-0.14,-2.1,-0.98
-0.15,0.99,-0.05,0.42,-2.52,-0.63
-0.15,0.99,-0.05,0.07,-2.31,-0.84
-0.15,0.99,-0.05,0.14,-2.38,-0.84
-0.16,0.99,-0.05,0,-2.24,-0.84
-0.16,0.99,-0.05,0.14,-2.24,-0.91
-0.15,0.99,-0.05,0.28,-2.38,-0.7
-0.16,0.99,-0.05,0.14,-2.38,-0.77
-0.15,0.99,-0.05,0,-2.31,-0.91
-0.15,0.99,-0.05,0.07,-2.31,-0.84
-0.16,0.99,-0.05,-0.07,-2.31,-0.84
-0.15,0.99,-0.05,0.21,-2.1,-0.91
-0.16,0.99,-0.05,0.14,-2.38,-0.77
-0.15,0.99,-0.05,0.28,-2.59,-0.77
-0.15,0.99,-0.05,0.07,-2.38,-0.84
-0.15,0.99,-0.05,0,-2.31,-0.77
-0.15,0.99,-0.05,0.28,-2.45,-0.7
-0.16,0.99,-0.05,0.21,-2.38,-0.63
-0.15,0.99,-0.05,0.21,-2.31,-0.84
-0.15,0.99,-0.05,0.14,-2.31,-0.84
-0.15,0.99,-0.05,0.28,-2.38,-0.77
-0.16,0.99,-0.05,0,-2.24,-0.91
-0.15,0.99,-0.05,0.21,-2.38,-0.84
-0.15,0.99,-0.05,0.07,-2.24,-0.91
-0.15,0.99,-0.05,0.21,-2.31,-0.84
-0.15,0.99,-0.05,0.35,-2.66,-0.56
-0.15,0.99,-0.05,0.21,-2.24,-0.77
-0.15,0.99,-0.05,0.07,-2.31,-0.91
-0.15,0.99,-0.05,0,-2.31,-0.98
-0.15,0.99,-0.05,0,-2.24,-0.77
-0.16,0.99,-0.05,0.28,-2.38,-0.7
-0.15,0.99,-0.05,0.21,-2.31,-1.05
-0.16,0.99,-0.05,0.28,-2.17,-0.84
-0.16,0.99,-0.05,-0.07,-2.24,-0.98
-0.16,0.99,-0.05,0.14,-2.38,-0.84
-0.15,0.99,-0.05,0.07,-2.38,-0.84
-0.15,0.99,-0.05,0.28,-2.59,-0.77
-0.15,0.99,-0.05,0.21,-2.52,-0.77
-0.15,0.99,-0.05,-0.07,-2.31,-0.84
-0.15,0.99,-0.05,0.14,-2.24,-0.91
-0.15,0.99,-0.05,0.28,-2.45,-0.7
-0.16,0.99,-0.05,0.42,-2.45,-0.77
-0.16,0.99,-0.05,0.21,-2.45,-0.77
-0.15,0.99,-0.05,0.21,-2.45,-0.63
-0.15,0.99,-0.05,0.35,-2.66,-0.84
-0.15,0.99,-0.05,0.21,-2.73,-0.56
-0.16,0.99,-0.05,0.28,-2.59,-0.63
-0.16,0.99,-0.05,0.07,-2.45,-0.84
-0.15,0.99,-0.05,0.07,-2.38,-0.77
-0.16,0.99,-0.05,0.14,-2.38,-0.77
-0.15,0.99,-0.05,0.21,-2.38,-0.77
-0.15,0.99,-0.05,0.35,-2.52,-0.7
-0.15,0.99,-0.05,0.07,-2.38,-0.77
-0.15,0.99,-0.05,-17.85,-2.31,-0.91
-0.16,0.99,-0.05,-0.07,-2.24,-0.91
-0.15,0.99,-0.05,0.21,-2.31,-0.77
-0.15,0.99,-0.05,0.21,-2.38,-0.84
-0.15,0.99,-0.05,0.28,-2.31,-0.84
-0.15,0.99,-0.05,0.21,-2.31,-0.77
-0.16,0.99,-0.05,0.42,-2.38,-0.77
-0.16,0.99,-0.05,0.49,-2.66,-0.63
-0.15,0.99,-0.05,0.14,-2.38,-0.84
-0.16,0.99,-0.05,-0.07,-2.24,-0.98
-0.15,0.99,-0.05,0,-2.38,-0.77
-0.15,0.99,-0.05,0.07,-2.31,-0.7
-0.15,0.99,-0.05,0.21,-2.45,-0.63
-0.15,0.99,-0.05,0,-2.45,-0.84
-0.16,0.99,-0.05,-0.07,-2.24,-0.84
-0.15,0.99,-0.05,0.07,-2.31,-0.84
-0.15,0.99,-0.05,0.28,-2.24,-0.77
-0.15,0.99,-0.05,0.14,-2.31,-0.7
-0.16,0.99,-0.05,-0.07,-2.24,-0.91
-0.16,0.99,-0.05,-0.07,-2.1,-1.05
-0.16,0.99,-0.05,-17.85,-2.24,-0.91
-0.16,0.99,-0.05,0,-2.52,-0.77
-0.16,0.99,-0.05,0.21,-2.52,-0.77
-0.16,0.99,-0.05,0.07,-2.38,-0.91
-0.15,0.99,-0.05,0.07,-2.45,-0.77
-0.15,0.99,-0.05,0.07,-2.38,-0.91
-0.15,0.99,-0.05,0.28,-2.38,-0.77
-0.15,0.99,-0.05,0,-2.24,-0.84
-0.15,0.99,-0.05,0,-2.24,-0.84
-0.15,0.99,-0.05,0.28,-2.38,-0.77
-0.15,0.99,-0.05,0.28,-2.52,-0.84
-0.16,0.99,-0.05,0.28,-2.31,-0.77
-0.16,0.99,-0.05,0.35,-2.31,-0.84
-0.16,0.99,-0.05,-0.07,-2.31,-0.91
-0.15,0.99,-0.05,-0.21,-2.24,-0.98
-0.15,0.99,-0.05,0.07,-2.45,-0.91
-0.16,0.99,-0.05,0.07,-2.45,-0.77
-0.15,0.99,-0.05,0.14,-2.45,-0.7
-0.15,0.99,-0.05,0.14,-2.45,-1.05
-0.16,0.99,-0.05,0.07,-2.52,-0.7
-0.15,0.99,-0.05,0.21,-2.31,-0.84
-0.16,0.99,-0.05,0.28,-2.45,-0.7
-0.15,0.99,-0.05,0.07,-2.45,-0.84
-0.15,0.99,-0.05,0.07,-2.45,-0.84
-0.15,0.99,-0.05,0.07,-2.45,-1.05
-0.16,0.99,-0.05,0,-2.31,-0.84
-0.15,0.99,-0.05,-0.07,-2.31,-0.84
-0.16,0.99,-0.05,0.21,-2.45,-0.7
-0.16,0.99,-0.05,0.35,-2.45,-0.77
-0.15,0.99,-0.05,0.42,-2.59,-0.7
-0.16,0.99,-0.05,0.28,-2.52,-0.77
-0.16,0.99,-0.05,0.14,-2.38,-0.49
-0.16,0.99,-0.05,0.28,-2.45,-0.77
-0.15,0.99,-0.05,0,-2.52,-0.77
-0.15,0.99,-0.05,0.14,-2.38,-0.77
-0.16,0.99,-0.05,-0.21,-2.17,-0.91
-0.15,0.99,-0.05,0.21,-2.38,-0.77
-0.15,0.99,-0.05,0.07,-2.45,-0.91
-0.15,0.99,-0.05,-0.07,-2.24,-1.12
-0.16,0.99,-0.05,0.07,-2.17,-0.91
-0.16,0.99,-0.05,0.14,-2.1,-0.91
-0.15,0.99,-0.05,-0.07,-2.38,-0.91
-0.16,0.99,-0.05,-0.21,-2.24,-0.91
-0.15,0.99,-0.05,0.07,-2.52,-0.91
-0.15,0.99,-0.05,0.14,-2.45,-0.91
-0.16,0.99,-0.05,0.14,-2.45,-0.7
-0.15,0.99,-0.05,0,-2.38,-0.77
-0.15,0.99,-0.05,-0.14,-2.24,-0.91
-0.15,0.99,-0.05,0.21,-2.38,-0.77
-0.15,0.99,-0.05,0.28,-2.45,-0.84
-0.15,0.99,-0.05,0.28,-2.45,-0.77
-0.16,0.99,-0.05,0.14,-2.31,-0.91
-0.15,0.99,-0.05,0.14,-2.31,-0.91
-0.15,0.99,-0.05,0.14,-2.24,-0.84
-0.15,0.99,-0.05,0,-2.24,-0.84
-0.15,0.99,-0.05,0,-2.24,-0.91
-0.15,0.99,-0.05,0.14,-2.38,-0.91
-0.16,0.99,-0.05,0.07,-2.38,-0.98
-0.15,0.99,-0.05,-0.07,-2.31,-0.77
-0.15,0.99,-0.05,0.28,-2.52,-0.91
-0.15,0.99,-0.05,0,-2.52,-0.63
-0.15,0.99,-0.05,0.07,-2.38,-0.77
-0.15,0.99,-0.05,0,-2.31,-0.91
-0.15,0.99,-0.05,0.07,-2.31,-0.84
-0.15,0.99,-0.05,0,-2.38,-0.77
-0.15,0.99,-0.05,0.14,-2.31,-0.84
-0.15,0.99,-0.05,0.14,-2.38,-0.77
-0.15,0.99,-0.05,0.07,-2.31,-0.98
-0.16,0.99,-0.05,0.21,-2.45,-0.7
-0.16,0.99,-0.05,0.42,-2.59,-0.7
-0.16,0.99,-0.05,0.21,-2.52,-0.77
-0.16,0.99,-0.05,-0.07,-2.45,-0.77
-0.16,0.99,-0.05,0,-2.24,-0.84
-0.15,0.99,-0.05,0.07,-2.31,-0.77
-0.15,0.99,-0.05,0.42,-2.38,-0.63
-0.16,0.99,-0.05,0.28,-2.31,-0.84
-0.16,0.99,-0.05,0.28,-2.52,-0.77
-0.16,0.99,-0.05,0.14,-2.38,-0.84
-0.15,0.99,-0.05,0.21,-2.38,-0.91
-0.15,0.99,-0.05,0.28,-2.52,-0.7
-0.15,0.99,-0.05,0.14,-2.59,-0.56
-0.15,0.99,-0.05,0.42,-2.59,-0.77
-0.15,0.99,-0.05,0.14,-2.45,-0.77
-0.16,0.99,-0.05,0.14,-2.38,-0.84
-0.16,0.99,-0.05,0.14,-2.24,-0.98
-0.15,0.99,-0.05,0.28,-2.38,-0.84
-0.16,0.99,-0.05,0.14,-2.31,-0.91
-0.15,0.99,-0.05,0.21,-2.38,-0.84
-0.15,0.99,-0.05,-0.28,-2.17,-0.98
-0.16,0.99,-0.05,0,-2.24,-0.84
-0.16,0.99,-0.05,0.21,-2.38,-0.91
-0.15,0.99,-0.05,0.14,-2.31,-0.7
-0.15,0.99,-0.05,0.07,-2.24,-0.84
-0.16,0.99,-0.05,0.14,-2.17,-0.98
-0.15,0.99,-0.05,-0.07,-2.31,-0.91
-0.15,0.99,-0.05,0.14,-2.38,-0.7
-0.16,0.99,-0.05,0,-2.38,-0.91
-0.16,0.99,-0.05,0.14,-2.45,-0.84
-0.15,0.99,-0.05,0,-2.38,-0.84
-0.16,0.99,-0.05,0.14,-2.31,-0.91
-0.15,0.99,-0.05,0,-2.45,-0.84
-0.15,0.99,-0.05,0.21,-2.59,-0.77
-0.15,0.99,-0.05,0.07,-2.45,-0.91
-0.15,0.99,-0.05,0.07,-2.31,-0.84
-0.16,0.99,-0.05,0.49,-2.59,-0.63
-0.16,0.99,-0.05,0.28,-2.52,-0.63
-0.16,0.99,-0.05,0.28,-2.24,-0.98
-0.16,0.99,-0.05,0.07,-2.38,-0.7
-0.15,0.99,-0.05,0.28,-2.38,-0.7
-0.15,0.99,-0.05,0.42,-2.52,-0.7
-0.15,0.99,-0.05,0.14,-2.38,-0.77
-0.15,0.99,-0.05,0.07,-2.38,-0.84
-0.15,0.99,-0.05,0.14,-2.38,-0.91
-0.15,0.99,-0.05,0.14,-2.24,-0.91
-0.15,0.99,-0.05,0.21,-2.31,-0.84
-0.16,0.99,-0.05,-0.07,-2.17,-0.98
-0.15,0.99,-0.05,-0.07,-2.31,-0.91
-0.16,0.99,-0.05,0.21,-2.45,-0.77
-0.16,0.99,-0.05,0,-2.45,-0.77
-0.16,0.99,-0.05,-0.21,-2.31,-0.98
-0.16,0.99,-0.05,0,-2.38,-0.98
-0.16,0.99,-0.05,-0.07,-2.17,-0.91
-0.16,0.99,-0.05,0.07,-2.38,-0.7
-0.16,0.99,-0.05,0.14,-2.38,-0.84
-0.15,0.99,-0.05,0.21,-2.38,-0.91
-0.16,0.99,-0.05,0.21,-2.52,-0.7
-0.16,0.99,-0.05,0.07,-2.38,-0.84
-0.15,0.99,-0.05,0.14,-2.38,-0.84
-0.16,0.99,-0.05,0.07,-2.52,-0.7
-0.15,0.99,-0.05,0.07,-2.38,-0.84
-0.15,0.99,-0.05,0,-2.31,-0.63
-0.16,0.99,-0.05,0.07,-2.31,-0.98
-0.15,0.99,-0.05,-0.07,-2.31,-0.84
-0.15,0.99,-0.05,0.07,-2.31,-0.98
-0.15,0.99,-0.05,0.14,-2.31,-0.91
-0.16,0.99,-0.05,0,-2.38,-0.7
-0.15,0.99,-0.05,0.07,-2.17,-0.84
-0.16,0.99,-0.05,0.21,-2.45,-0.77
-0.16,0.99,-0.05,0.14,-2.45,-0.77
-0.15,0.99,-0.05,0.14,-2.38,-0.91
-0.16,0.99,-0.05,-0.07,-2.24,-0.91
-0.15,0.99,-0.05,0.07,-2.31,-0.91
-0.15,0.99,-0.05,0.21,-2.45,-0.84
-0.15,0.99,-0.05,0.28,-2.52,-0.84
-0.15,0.99,-0.05,0.14,-2.24,-0.91
-0.16,0.99,-0.05,0.14,-2.45,-0.77
-0.16,0.99,-0.05,-0.14,-2.17,-0.98
-0.16,0.99,-0.05,0.07,-2.38,-0.84
-0.16,0.99,-0.05,0,-2.17,-0.98
-0.16,0.99,-0.05,0.07,-2.45,-0.84
-0.15,0.99,-0.05,0,-2.31,-0.91
-0.15,0.99,-0.05,0.21,-2.38,-0.77
-0.16,0.99,-0.05,0.14,-2.38,-0.84
-0.16,0.99,-0.05,0.28,-2.31,-0.91
-0.15,0.99,-0.05,0.14,-2.31,-0.77
-0.15,0.99,-0.05,-0.14,-2.31,-0.84
-0.15,0.99,-0.05,0.28,-2.45,-0.77
-0.16,0.99,-0.05,0.07,-2.24,-0.56
-0.15,0.99,-0.05,0.07,-2.38,-0.91
-0.15,0.99,-0.05,-0.07,-2.31,-0.84
-0.16,0.99,-0.05,0.28,-2.52,-0.84
-0.16,0.99,-0.05,0.42,-2.38,-0.77
-0.15,0.99,-0.05,0.14,-2.45,-0.91
-0.15,0.99,-0.05,0.42,-2.52,-0.84
-0.16,0.99,-0.05,0.14,-2.38,-0.77
-0.15,0.99,-0.05,-0.07,-2.31,-0.98
-0.16,0.99,-0.05,0.28,-2.45,-0.84
-0.15,0.99,-0.05,0.07,-2.45,-0.84
-0.16,0.99,-0.05,0,-2.38,-0.91
-0.15,0.99,-0.05,-0.07,-2.17,-0.91
-0.16,0.99,-0.05,0.14,-2.31,-0.91
-0.15,0.99,-0.05,-0.14,-2.31,-0.98
-0.15,0.99,-0.05,-0.07,-2.24,-0.91
-0.16,0.99,-0.05,0,-2.24,-0.91
-0.16,0.99,-0.05,0.14,-2.52,-0.84
-0.16,0.99,-0.05,0.14,-2.38,-0.91
-0.16,0.99,-0.05,0.14,-2.38,-0.7
-0.16,0.99,-0.05,0,-2.38,-0.77
-0.16,0.99,-0.05,0.63,-2.59,-0.56
-0.16,0.99,-0.05,0.28,-2.52,-0.84
-0.15,0.99,-0.05,0.42,-2.52,-0.77
-0.16,0.99,-0.05,0.35,-2.59,-0.84
-0.15,0.99,-0.05,0.21,-2.38,-0.84
-0.15,0.99,-0.05,0.35,-2.1,-0.91
-0.15,0.99,-0.05,0.28,-2.38,-0.84
-0.16,0.99,-0.05,0.14,-2.24,-0.91
-0.16,0.99,-0.05,-0.07,-2.24,-0.98
-0.15,0.99,-0.05,-0.14,-2.17,-0.91
-0.16,0.99,-0.05,0.07,-2.38,-0.91
-0.15,0.99,-0.05,0,-2.24,-0.84
-0.16,0.99,-0.05,0.07,-2.45,-0.77
-0.15,0.99,-0.05,0.07,-2.45,-0.84
-0.16,0.99,-0.05,0.14,-2.45,-0.77
-0.16,0.99,-0.05,0,-2.31,-0.91
-0.16,0.99,-0.05,0,-2.38,-0.77
-0.15,0.99,-0.05,0,-2.38,-0.98
-0.16,0.99,-0.05,0.35,-2.59,-0.7
-0.16,0.99,-0.05,0.42,-2.59,-0.77
-0.15,0.99,-0.05,0.49,-2.73,-0.77
-0.16,0.99,-0.05,0.28,-2.45,-0.77
-0.15,0.99,-0.05,0.07,-2.38,-0.91
-0.16,0.99,-0.05,0.28,-2.31,-0.84
-0.15,0.99,-0.05,0.35,-2.45,-0.91
-0.16,0.99,-0.05,0.42,-2.24,-0.77
-0.15,0.99,-0.05,0.14,-2.17,-0.84
-0.16,0.99,-0.05,0.07,-2.24,-0.77
-0.16,0.99,-0.05,0.21,-2.38,-0.84
-0.16,0.99,-0.05,0.35,-2.52,-0.7
-0.15,0.99,-0.05,0.14,-2.52,-0.77
-0.15,0.99,-0.05,0.07,-2.31,-0.98
-0.15,0.99,-0.05,0,-2.38,-0.91
-0.15,0.99,-0.05,0.21,-2.52,-0.77
-0.15,0.99,-0.05,0.35,-2.59,-0.7
-0.16,0.99,-0.05,0.14,-2.45,-0.84
-0.15,0.99,-0.05,0.14,-2.38,-1.05
-0.16,0.99,-0.05,0.21,-2.38,-0.98
-0.16,0.99,-0.05,0.07,-2.38,-0.7
-0.15,0.99,-0.05,0.07,-2.31,-0.77
-0.16,0.99,-0.05,0.14,-2.17,-0.7
-0.16,0.99,-0.05,0,-2.24,-0.84
-0.15,0.99,-0.05,0.28,-2.38,-0.7
-0.16,0.99,-0.05,0.28,-2.31,-0.77
-0.16,0.99,-0.05,0.28,-2.52,-0.56
-0.15,0.99,-0.05,0.21,-2.24,-0.84
-0.16,0.99,-0.05,0.49,-2.52,-0.77
-0.15,0.99,-0.05,0.28,-2.38,-0.77
-0.15,0.99,-0.05,0.07,-2.38,-0.98
-0.15,0.99,-0.05,0.21,-2.31,-0.91
-0.16,0.99,-0.05,0.42,-2.45,-0.98
-0.15,0.99,-0.05,0.14,-2.45,-0.7
-0.16,0.99,-0.05,0.21,-2.17,-0.84
-0.15,0.99,-0.05,0.14,-2.31,-0.84
-0.16,0.99,-0.05,0,-2.24,-0.91
-0.15,0.99,-0.05,0.42,-2.45,-0.63
-0.16,0.99,-0.05,-0.28,-2.17,-0.98
-0.15,0.99,-0.05,0,-2.24,-0.84
-0.15,0.99,-0.05,0,-2.31,-0.91
-0.15,0.99,-0.05,0.07,-2.24,-0.84
-0.16,0.99,-0.05,-0.14,-2.24,-0.98
-0.15,0.99,-0.05,0.21,-2.31,-0.84
-0.15,0.99,-0.05,0.07,-2.31,-0.84
-0.16,0.99,-0.05,-0.07,-2.17,-0.98
-0.16,0.99,-0.05,0.21,-2.38,-0.56
-0.16,0.99,-0.05,0.42,-2.24,-0.91
-0.16,0.99,-0.05,-17.71,-2.38,-0.91
-0.16,0.99,-0.05,0.21,-2.45,-0.77
-0.15,0.99,-0.05,0.14,-2.38,-0.77
-0.15,0.99,-0.05,0.07,-2.38,-0.84
-0.16,0.99,-0.05,0.07,-2.31,-0.77
-0.15,0.99,-0.05,0.21,-2.17,-0.98
-0.15,0.99,-0.05,0.28,-2.38,-0.84
-0.16,0.99,-0.05,0.07,-2.31,-0.91
-0.15,0.99,-0.05,0.35,-2.31,-0.77
-0.15,0.99,-0.05,0.21,-2.38,-0.84
-0.15,0.99,-0.05,0.21,-2.45,-0.84
