Accel_x,Accel_y,Accel_z,Gyr_x,Gyr_y,Gyr_z
0.09,-0.27,1,-2.17,-1.54,-0.84
0.09,-0.28,1,-2.03,-2.1,-0.91
0.08,-0.28,1,-1.05,-1.89,-1.19
0.09,-0.27,1.01,-0.7,-2.52,-1.26
0.09,-0.27,1.01,-0.28,-3.15,-0.98
0.09,-0.28,1.01,0.56,-3.99,-0.91
0.09,-0.28,1.01,1.26,-4.9,-1.05
0.08,-0.28,1,3.08,-5.04,-0.49
0.08,-0.28,0.99,3.15,-4.76,0
0.1,-0.27,0.99,2.03,-3.57,0
0.09,-0.27,0.98,0.42,-2.1,-0.21
0.09,-0.28,0.98,-0.91,-1.54,-0.07
0.08,-0.28,0.98,-0.98,-1.47,0.28
0.09,-0.28,0.98,-1.75,-1.61,-0.21
0.1,-0.28,0.99,-2.87,-1.68,-1.26
0.1,-0.27,1.01,-2.94,-2.31,-2.1
0.09,-0.28,1.02,-2.1,-2.87,-3.36
0.08,-0.28,1.02,1.33,-4.13,-2.73
0.07,-0.27,1.01,3.85,-5.74,-1.4
0.07,-0.27,1,4.06,-5.81,0.28
0.08,-0.27,0.98,2.8,-4.76,1.26
0.09,-0.29,0.98,0.49,-3.57,1.75
0.1,-0.28,0.98,-0.63,-2.66,0.49
0.1,-0.28,0.99,-1.82,-1.26,-0.63
0.09,-0.28,0.99,-2.24,-1.33,-1.12
0.07,-0.27,1,-1.89,-1.89,-0.56
0.08,-0.27,1,-1.75,-2.1,-0.7
0.09,-0.27,1.01,-1.19,-2.94,-0.84
0.09,-0.29,1,0.49,-3.71,-1.05
0.07,-0.29,0.99,1.96,-4.41,-1.12
0.08,-0.29,0.98,1.96,-4.83,-1.33
0.09,-0.28,0.97,0.7,-3.85,-2.03
0.09,-0.29,0.97,0.42,-1.68,-2.24
0.08,-0.28,0.97,-0.49,-0.35,-2.1
0.09,-0.28,0.98,-3.36,0.7,-1.54
0.09,-0.28,0.99,-4.27,0.84,-0.98
0.09,-0.28,1.01,-3.71,0.49,-1.26
0.09,-0.29,1.01,-0.63,-0.07,-1.54
0.09,-0.28,1.02,1.12,-0.7,-2.1
0.09,-0.27,1.01,1.4,-2.31,-1.75
0.09,-0.27,1.01,0.49,-3.08,-1.05
0.09,-0.28,1,-0.77,-4.06,-0.77
0.09,-0.28,1,-0.56,-4.2,-0.98
0.09,-0.29,1,1.19,-4.48,-1.26
0.09,-0.28,0.99,1.26,-4.34,-1.96
0.09,-0.28,0.99,1.68,-3.5,-2.31
0.09,-0.28,0.98,1.96,-2.31,-1.54
0.09,-0.27,0.98,-0.77,-2.17,-0.63
0.09,-0.28,0.98,-2.38,-1.96,0.21
0.09,-0.29,0.98,-2.1,-1.47,0.14
0.09,-0.29,0.99,-1.33,-0.91,-0.7
0.1,-0.29,1,-0.91,-1.12,-2.45
0.11,-0.28,1,-1.12,-1.89,-3.15
0.1,-0.28,1.01,-0.63,-2.45,-3.64
0.08,-0.27,1.01,0.98,-3.36,-3.29
0.08,-0.27,1.01,2.1,-4.13,-2.38
0.08,-0.27,1,2.59,-4.2,-1.54
0.09,-0.26,0.99,2.17,-3.29,-0.91
0.09,-0.27,0.98,1.33,-2.66,0.56
0.09,-0.26,0.98,0.14,-1.12,1.26
0.09,-0.28,0.97,-1.05,-0.42,2.1
0.09,-0.28,0.98,-2.17,0.56,1.47
0.1,-0.29,0.98,-2.94,0.63,1.19
0.1,-0.29,1,-3.92,0.21,-0.28
0.1,-0.29,1.01,-3.5,-0.77,-1.96
0.09,-0.29,1.02,-1.89,-2.38,-3.22
0.09,-0.29,1.02,0.63,-3.92,-3.92
0.08,-0.28,1.01,3.43,-4.34,-3.99
0.08,-0.27,1,4.76,-4.76,-3.22
0.08,-0.27,0.98,3.85,-4.41,-1.68
0.09,-0.27,0.97,1.61,-3.5,-0.35
0.09,-0.27,0.96,-0.7,-1.82,0.49
0.1,-0.28,0.97,-2.17,17.78,0.28
0.1,-0.28,0.98,-2.87,1.4,0.07
0.1,-0.28,1,-3.64,1.26,-0.42
0.09,-0.28,1,-3.01,0.28,-0.84
0.09,-0.28,1.01,-1.75,-0.91,-0.98
0.09,-0.28,1.01,-0.56,-2.03,-0.63
0.08,-0.28,1,0.63,-3.15,-0.77
0.08,-0.29,1,1.68,-3.36,-0.63
0.09,-0.28,0.99,1.68,-2.94,-0.63
0.1,-0.28,0.99,-0.56,-2.31,-1.05
0.1,-0.29,0.99,-0.98,-1.61,-1.33
0.09,-0.28,1,-0.35,-1.61,-1.12
0.09,-0.28,1,-0.63,-1.89,-1.05
0.08,-0.28,1,-0.63,-1.89,-0.77
0.09,-0.28,1,0,-1.96,-0.63
0.09,-0.28,1,-0.21,-2.1,-0.84
0.09,-0.28,1,-0.56,-2.45,-0.7
0.08,-0.28,1,-0.56,-2.8,-0.77
0.09,-0.29,1,0.07,-3.29,-0.77
0.09,-0.29,0.99,0.56,-3.29,-1.05
0.09,-0.28,1,0.7,-3.43,-1.33
0.09,-0.28,0.99,0.07,-3.36,-1.33
0.09,-0.29,0.99,-0.07,-2.94,-1.68
0.09,-0.29,0.99,0.91,-2.17,-1.54
0.08,-0.28,0.99,1.33,-1.82,-1.19
0.08,-0.28,0.99,0.98,-2.1,-0.28
0.09,-0.28,0.99,0.14,-2.73,0.49
0.1,-0.28,1,-1.26,-2.66,-0.21
0.1,-0.29,1,-0.42,-2.31,-0.7
0.09,-0.29,1,0.77,-2.52,-0.84
0.09,-0.28,1,0.77,-2.94,-1.05
0.09,-0.29,1,0.7,-3.92,-1.05
0.1,-0.28,1,1.4,-4.69,-1.61
0.08,-0.29,0.99,3.36,-4.48,-1.89
0.08,-0.28,0.99,4.48,-4.2,-1.33
0.08,-0.27,0.98,2.94,-3.71,-0.42
0.08,-0.28,0.97,0.63,-2.31,0.28
0.09,-0.29,0.97,0.14,-1.4,0.56
0.1,-0.29,0.98,-0.49,-0.42,-0.07
0.1,-0.29,0.99,-0.63,-0.49,-1.05
0.09,-0.28,1,-0.28,-0.63,-1.96
0.09,-0.28,1,0.91,-0.77,-2.24
0.08,-0.27,1,2.45,-1.05,-2.1
0.08,-0.26,1,2.66,-1.54,-1.26
0.08,-0.26,1,2.31,-1.96,0.28
0.08,-0.26,1,1.96,-2.38,1.05
0.09,-0.27,1,1.54,-2.03,1.68
0.09,-0.27,1,1.4,-1.82,1.61
0.09,-0.28,1,1.12,-2.03,1.47
0.09,-0.28,1,0.56,-1.75,0.98
0.09,-0.28,1,0.56,-1.47,0.28
0.09,-0.29,0.99,0.77,-1.75,0.21
0.09,-0.28,1,-0.07,-1.82,-0.21
0.08,-0.28,1,-0.21,-1.61,-0.07
0.08,-0.28,1,0.28,-0.98,0.07
0.08,-0.28,0.99,0.98,-0.77,-0.35
0.08,-0.26,1,0,-1.4,0.21
0.08,-0.26,1,-0.84,-2.38,0.35
0.08,-0.28,1,0.28,-2.59,0.56
0.08,-0.27,1,1.12,-2.73,1.19
0.08,-0.28,1,0.7,-2.87,1.4
0.08,-0.29,0.99,1.47,-2.1,1.33
0.08,-0.29,0.99,1.12,-1.61,1.33
0.09,-0.28,0.99,-0.63,-0.98,1.05
0.1,-0.29,1,-1.54,-0.91,0.35
0.09,-0.29,1,-0.7,-0.77,-0.42
0.09,-0.29,1.01,0.77,-0.63,-0.98
0.08,-0.28,1.01,0.98,-1.54,-0.7
0.08,-0.28,1,0.91,-2.45,-0.14
0.09,-0.28,1,1.12,-2.87,-0.63
0.09,-0.28,1,0.7,-3.29,-0.63
0.09,-0.28,1,0.98,-3.78,-0.84
0.09,-0.28,1,1.89,-3.92,-0.98
0.08,-0.28,1,3.64,-3.22,-1.19
0.08,-0.27,0.99,3.99,-2.8,-0.84
0.08,-0.27,0.98,1.75,-2.45,0.07
0.08,-0.27,0.98,0.49,-2.24,0.7
0.08,-0.28,0.98,0.84,-1.75,0.63
0.09,-0.28,0.98,1.19,-0.84,0.14
0.09,-0.27,0.98,0.35,-0.56,-0.49
0.09,-0.26,0.99,-0.7,-0.77,-0.63
0.08,-0.26,1,-1.61,-1.19,-0.56
0.08,-0.27,1.01,-2.1,-1.96,-0.63
0.08,-0.27,1.02,-2.1,-3.08,-0.7
0.08,-0.28,1.02,-0.14,-3.85,-1.4
0.08,-0.28,1.02,1.96,-4.55,-2.03
0.08,-0.28,1.01,3.99,-5.04,-2.31
0.08,-0.27,0.99,4.13,-4.69,-1.96
0.08,-0.26,0.98,2.17,-3.85,-1.19
0.08,-0.25,0.97,0,-2.87,0.21
0.08,-0.27,0.97,-2.03,-1.47,1.26
0.09,-0.28,0.98,-3.15,-0.77,1.05
0.09,-0.28,0.99,-3.5,-0.7,0.56
0.09,-0.29,1,-3.08,-1.33,-0.14
0.08,-0.29,1.01,-1.96,-2.24,-1.12
0.09,-0.29,1.01,0.49,-3.36,-1.75
0.08,-0.29,1.01,2.52,-3.08,-2.8
0.08,-0.28,1,3.78,-3.29,-2.31
0.08,-0.27,0.99,2.45,-3.64,-1.54
0.09,-0.28,0.99,0.07,-3.36,-1.47
0.09,-0.29,0.98,17.78,-2.66,-1.26
0.08,-0.28,0.99,0.63,-1.54,-1.75
0.09,-0.27,0.99,0.35,-1.4,-2.38
0.09,-0.26,1,-0.7,-1.68,-2.1
0.09,-0.26,1.01,-2.52,-2.45,-1.96
0.08,-0.27,1.01,-1.33,-3.78,-1.96
0.08,-0.27,1.01,0.91,-4.9,-1.26
0.08,-0.27,1,2.59,-6.02,-1.4
0.08,-0.28,0.98,4.06,-5.46,-1.33
0.09,-0.27,0.98,3.01,-3.43,-1.33
0.09,-0.28,0.96,0.35,-2.38,-0.63
0.09,-0.28,0.97,-1.33,-1.26,-0.91
0.1,-0.28,0.98,-2.1,0.28,-1.33
0.1,-0.28,0.99,-3.36,-0.21,-1.82
0.09,-0.28,1.01,-2.87,-1.05,-2.03
0.08,-0.28,1.02,-1.61,-2.17,-2.03
0.08,-0.27,1.02,0.84,-3.57,-1.47
0.09,-0.27,1.01,1.26,-4.06,-1.33
0.09,-0.28,1.01,1.68,-4.27,-0.98
0.09,-0.28,1,1.82,-4.48,-0.98
0.09,-0.28,0.99,1.75,-4.27,-0.98
0.08,-0.28,0.98,1.12,-3.5,-0.77
0.09,-0.28,0.98,0.28,-2.45,-1.4
0.1,-0.27,0.99,-1.89,-2.24,-1.96
0.1,-0.28,1,-2.87,-2.59,-2.38
0.08,-0.28,1,-0.98,-2.8,-2.45
0.08,-0.28,1,1.75,-3.29,-2.24
0.09,-0.27,1,2.17,-3.57,-1.61
0.1,-0.26,0.99,0.14,-3.57,-1.47
0.09,-0.28,0.98,-0.63,-3.36,-1.54
0.08,-0.28,0.98,0.91,-2.17,-1.61
0.09,-0.28,0.98,1.61,-1.33,-2.24
0.09,-0.27,0.98,1.19,-0.91,-2.1
0.09,-0.27,0.99,0.84,-1.05,-1.68
0.09,-0.26,0.99,0.28,-0.98,-1.05
0.09,-0.26,0.99,-0.56,-0.56,-0.21
0.09,-0.26,0.99,-0.63,-0.14,1.05
0.09,-0.27,0.99,-1.75,0.07,1.33
0.1,-0.28,1,-2.8,0.07,0.91
0.1,-0.29,1.01,-2.24,-0.7,0.21
0.1,-0.3,1.01,-0.49,-1.89,-0.84
0.1,-0.29,1.01,0.91,-2.8,-1.82
0.09,-0.28,1.01,1.96,-3.15,-2.31
0.09,-0.27,1,2.38,-2.73,-1.54
0.09,-0.28,0.99,2.1,-2.59,-0.42
0.09,-0.27,0.99,1.05,-2.38,0.42
0.09,-0.28,0.99,0.42,-2.03,1.26
0.09,-0.28,0.99,0.35,-1.26,1.33
0.1,-0.28,0.99,0,-0.77,1.12
0.1,-0.28,1,-0.84,-0.77,0.56
0.11,-0.28,1.01,-0.84,-1.26,-0.56
0.1,-0.28,1.01,0.98,-2.45,-1.4
0.09,-0.27,1.02,2.8,-3.85,-1.4
0.09,-0.26,1.01,3.43,-4.97,-0.56
0.09,-0.26,1,2.87,-5.11,0.21
0.08,-0.27,0.99,3.22,-4.34,0.84
0.08,-0.27,0.98,3.36,-3.15,1.61
0.09,-0.26,0.98,0.91,-2.45,2.17
0.09,-0.27,0.98,-0.63,-1.96,1.96
0.09,-0.27,0.99,-1.4,-1.4,1.61
0.09,-0.27,1,-2.1,-2.31,1.05
0.09,-0.27,1.01,-2.03,-3.36,0.35
0.08,-0.28,1.01,-0.07,-4.2,-0.49
0.08,-0.28,1.01,2.31,-4.41,-1.82
0.08,-0.28,1,3.5,-4.76,-2.52
0.08,-0.28,0.99,3.64,-3.99,-2.52
0.08,-0.27,0.98,3.01,-2.73,-2.31
0.07,-0.26,0.98,2.17,-1.75,-1.12
0.07,-0.25,0.98,0.35,-0.84,1.12
0.07,-0.25,0.98,-1.75,-0.21,2.31
0.08,-0.26,0.99,-3.15,-0.21,3.15
0.08,-0.27,1.01,-3.99,-0.63,2.87
0.09,-0.28,1.01,-2.87,-1.61,1.26
0.09,-0.29,1.01,-1.12,-2.66,-0.7
0.09,-0.29,1.01,1.61,-3.92,-2.31
0.08,-0.29,1,3.57,-4.27,-3.01
0.08,-0.28,0.99,4.27,-4.13,-3.15
0.08,-0.26,0.98,2.03,-3.43,-2.66
0.08,-0.26,0.97,0.84,-2.59,-1.89
0.07,-0.26,0.96,1.05,-1.33,-0.63
0.07,-0.26,0.96,-0.21,0.28,0.56
0.09,-0.26,0.97,-2.94,2.03,1.54
0.1,-0.26,0.99,-6.51,3.43,1.47
0.1,-0.27,1.01,-7.42,3.15,1.05
0.09,-0.29,1.03,-6.3,1.19,0
0.09,-0.29,1.04,-3.22,-0.84,-0.98
0.09,-0.29,1.04,0.14,-3.08,-1.89
0.09,-0.29,1.03,3.71,-4.2,-2.45
0.09,-0.28,1.01,4.97,-4.69,-2.45
0.09,-0.28,1,4.48,-4.83,-1.96
0.09,-0.27,0.98,3.01,-3.71,-1.33
0.09,-0.28,0.97,0.7,-2.31,-0.49
0.09,-0.28,0.97,-1.82,-0.91,-0.07
0.09,-0.28,0.98,-3.85,0.07,-0.21
0.09,-0.29,0.99,-4.62,0.28,-1.19
0.09,-0.29,1,-3.99,-0.21,-2.03
0.09,-0.28,1.01,-3.22,-1.82,-3.01
0.09,-0.28,1.03,-2.24,-3.64,-3.57
0.07,-0.28,1.03,1.05,-5.32,-3.15
0.06,-0.28,1.01,4.41,-6.16,-2.31
0.06,-0.28,0.99,6.02,-6.02,-1.75
0.08,-0.28,0.97,4.76,-5.11,-1.12
0.08,-0.28,0.96,1.54,-3.29,-0.84
0.09,-0.28,0.95,-1.05,-1.26,-1.61
0.1,-0.28,0.96,-2.52,0.28,-2.17
0.09,-0.27,0.98,-4.13,0.49,-3.22
0.09,-0.27,1,-3.64,0.21,-3.99
0.08,-0.27,1.01,-1.47,-0.42,-4.27
0.08,-0.27,1.01,0.56,-1.89,-3.78
0.07,-0.26,1.01,2.1,-3.08,-2.52
0.06,-0.26,1,3.22,-3.29,-0.98
0.07,-0.26,0.99,3.36,-2.59,0.49
0.08,-0.26,0.98,1.68,-2.1,1.75
0.09,-0.28,0.98,-1.12,-1.68,1.26
0.1,-0.28,0.98,-2.38,-0.98,0.21
0.1,-0.29,0.99,-1.75,-0.14,-1.47
0.09,-0.28,0.99,-0.28,0.14,-1.89
0.08,-0.28,0.99,-0.49,0.42,-2.45
0.08,-0.27,1,-0.49,0.42,-1.47
0.08,-0.27,1.01,-1.12,-0.35,-0.28
0.08,-0.28,1.01,-0.98,-0.91,0.28
0.09,-0.29,1.01,0.28,-1.05,0.21
0.09,-0.28,1.01,1.61,-0.98,-0.14
0.1,-0.28,1.01,1.61,-1.68,-0.84
0.1,-0.28,1.01,1.47,-2.17,-1.05
0.1,-0.28,1,1.26,-2.03,-1.26
0.1,-0.28,1,0.77,-2.45,-0.98
0.09,-0.28,1,0.35,-2.8,-0.42
0.09,-0.28,0.99,0.77,-2.8,-0.77
0.09,-0.28,0.99,1.26,-2.1,-1.05
0.1,-0.27,0.99,0.49,-1.89,-1.47
0.1,-0.27,1,-0.49,-2.24,-1.96
0.09,-0.27,1.01,-0.63,-2.66,-2.8
0.08,-0.28,1.01,2.03,-3.64,-2.45
0.07,-0.27,1.01,3.85,-4.34,-1.96
0.08,-0.26,1,4.06,-4.48,-0.35
0.08,-0.25,0.99,2.52,-3.99,0.98
0.09,-0.26,0.98,0.21,-3.01,1.61
0.09,-0.27,0.99,-1.05,-2.03,0.7
0.09,-0.28,1,-0.7,-1.96,0.14
0.08,-0.27,1.01,-1.05,-2.52,-0.56
0.08,-0.27,1.01,-0.21,-3.71,-0.07
0.07,-0.27,1.01,0.56,-4.41,0.14
0.08,-0.28,1.01,1.33,-4.9,0.49
0.08,-0.28,1,1.26,-5.74,0.14
0.07,-0.29,0.99,1.61,-5.88,-0.28
0.07,-0.29,0.97,3.78,-4.69,-1.33
0.08,-0.28,0.96,3.92,-3.22,-1.96
0.08,-0.26,0.96,0.84,-1.26,-2.38
0.08,-0.26,0.97,-3.22,-0.07,-1.26
0.08,-0.26,0.99,-5.81,-0.07,-0.63
0.08,-0.28,1.01,-4.97,-0.84,-0.91
0.08,-0.28,1.02,-1.05,-1.82,-1.26
0.08,-0.28,1.01,1.75,-2.24,-1.96
0.08,-0.27,1,2.24,-2.45,-1.54
0.08,-0.27,0.99,1.33,-1.26,-0.98
0.09,-0.28,1,-1.4,-0.14,-0.35
0.08,-0.28,1,-2.94,-1.05,0.56
0.08,-0.28,1.02,-2.73,-1.4,0.84
0.09,-0.29,1.02,-0.14,-1.89,-0.21
0.09,-0.28,1.02,1.82,-3.29,-1.19
0.09,-0.28,1.01,1.96,-4.69,-2.24
0.09,-0.28,1,3.36,-4.34,-2.59
0.08,-0.27,0.98,3.64,-3.57,-2.17
0.07,-0.27,0.97,3.01,-2.73,-0.84
0.09,-0.26,0.97,-0.14,-1.05,0.49
0.09,-0.27,0.98,-2.66,0.21,1.89
0.09,-0.28,1,-3.99,0.21,1.89
0.09,-0.29,1.01,-2.24,0,1.05
0.1,-0.28,1.02,-0.14,-1.54,0.35
0.09,-0.28,1.02,1.61,-3.43,-1.75
0.09,-0.28,1.01,4.2,-4.06,-3.08
0.08,-0.27,1,5.53,-4.2,-3.5
0.08,-0.26,0.99,4.34,-4.69,-2.59
0.09,-0.25,0.98,1.12,-4.41,-1.47
0.08,-0.26,0.99,-0.56,-3.29,-0.84
0.08,-0.27,0.99,-0.84,-2.1,-0.77
0.08,-0.26,0.99,-0.7,-1.82,-0.63
0.09,-0.27,1,-0.28,-1.47,-0.84
0.08,-0.27,1,1.12,-1.68,-0.84
0.08,-0.26,1,1.12,-2.38,-0.7
0.09,-0.25,1,0.07,-2.73,-0.7
0.09,-0.25,1,-0.28,-2.59,-0.56
0.08,-0.25,1,-0.77,-2.59,-0.07
0.08,-0.26,1,-1.89,-3.15,0.98
0.08,-0.26,1.01,-2.94,-3.57,1.05
0.08,-0.28,1.01,-1.89,-3.78,0.77
0.08,-0.28,1.01,0.21,-3.99,-0.07
0.09,-0.28,1,0.77,-4.06,-1.4
0.09,-0.28,0.99,1.33,-3.92,-2.17
0.08,-0.28,0.98,1.4,-3.15,-2.17
0.08,-0.27,0.98,0.56,-2.73,-2.1
0.08,-0.26,0.98,-1.33,-2.59,-0.91
0.08,-0.27,0.98,-2.03,-1.89,0.42
0.07,-0.27,0.99,-2.59,-1.47,1.19
0.08,-0.28,0.99,-2.87,-1.61,1.75
0.09,-0.29,1,-2.87,-1.26,1.61
0.09,-0.3,1,-2.38,-1.75,-0.14
0.1,-0.3,1.01,-1.19,-2.1,-1.89
0.09,-0.29,1.01,0.42,-1.89,-3.29
0.08,-0.28,1.01,1.82,-2.66,-3.08
0.08,-0.28,1,0.98,-3.01,-2.52
0.08,-0.28,1,0.21,-3.15,-1.47
0.08,-0.28,1,0.56,-3.15,-1.26
0.09,-0.29,1,1.4,-2.8,-1.61
0.09,-0.28,0.99,1.75,-2.17,-1.89
0.09,-0.28,0.99,0.98,-2.24,-1.4
0.09,-0.28,0.99,-0.91,-2.24,-1.47
0.1,-0.28,0.99,-1.61,-1.54,-1.96
0.09,-0.28,1,-1.89,-1.4,-2.59
0.09,-0.28,1.01,-0.7,-2.17,-3.01
0.08,-0.28,1.01,1.33,-3.78,-3.01
0.08,-0.27,1,3.01,-4.76,-2.66
0.08,-0.27,0.99,3.64,-4.55,-2.8
0.09,-0.26,0.97,3.85,-3.99,-2.66
0.09,-0.25,0.96,2.59,-3.08,-1.89
0.09,-0.25,0.96,-0.28,-1.4,-1.33
0.09,-0.26,0.97,-3.15,-0.49,-0.49
0.09,-0.27,0.98,-4.2,0.63,-0.14
0.09,-0.27,1,-3.71,0.63,-0.14
0.09,-0.28,1.01,-2.31,-0.35,-0.49
0.09,-0.28,1.02,-0.77,-1.4,-0.56
0.09,-0.28,1.01,-0.28,-2.24,-0.84
0.09,-0.28,1.01,0.21,-2.59,-1.19
0.1,-0.27,1.01,0.07,-2.87,-1.47
0.09,-0.27,1.01,-0.63,-3.15,-1.89
0.09,-0.28,1.01,-0.28,-4.13,-2.24
0.09,-0.28,1,0.77,-5.04,-1.96
0.09,-0.27,1,1.05,-5.39,-1.54
0.08,-0.28,0.99,0.77,-5.18,-1.19
0.09,-0.28,0.98,0.7,-4.34,-0.84
0.09,-0.28,0.98,0.56,-3.15,-0.49
0.09,-0.28,0.97,-0.28,-1.96,-0.07
0.09,-0.28,0.98,-0.98,-0.42,-0.35
0.09,-0.28,0.98,-1.82,0.35,-0.28
0.1,-0.28,1,-2.87,0.07,-0.63
0.09,-0.28,1.01,-1.75,-0.56,-0.56
0.09,-0.28,1.01,0.35,-1.82,-0.84
0.08,-0.27,1,1.4,-3.08,-0.21
0.09,-0.27,1,0.98,-3.5,0.28
0.09,-0.28,1,0.77,-3.43,0.42
0.09,-0.28,0.99,0.91,-3.43,-0.21
0.1,-0.29,0.99,1.47,-3.15,-0.7
0.09,-0.29,0.98,1.61,-2.59,-0.84
0.09,-0.28,0.98,0.77,-1.68,-1.19
0.09,-0.28,0.98,-17.78,-0.7,-1.19
0.09,-0.28,0.99,-0.28,-0.28,-1.05
0.09,-0.28,1,-0.98,-0.21,-1.19
0.09,-0.27,1.01,-0.35,-0.98,-0.7
0.08,-0.27,1.01,-0.21,-1.96,-0.21
0.09,-0.27,1.01,-0.07,-3.15,-0.21
0.1,-0.27,1.01,1.19,-3.5,-0.91
0.09,-0.28,1.01,2.52,-3.85,-1.61
0.09,-0.27,1,3.71,-4.55,-1.26
0.09,-0.27,0.99,3.36,-4.69,-0.84
0.09,-0.27,0.98,2.03,-4.41,0.28
0.09,-0.28,0.97,0.7,-3.15,0.35
0.09,-0.28,0.97,-0.35,-1.82,0.42
0.1,-0.28,0.97,-1.75,-0.77,-0.14
0.1,-0.28,0.98,-2.31,-0.49,-0.56
0.09,-0.28,0.99,-1.68,-0.49,-0.56
0.08,-0.28,1,-0.21,-0.91,-0.21
0.08,-0.28,1,0.7,-1.68,0.28
0.09,-0.27,1.01,0.56,-2.66,-0.07
0.1,-0.28,1,1.82,-3.36,-0.91
0.1,-0.28,1,2.59,-3.01,-1.82
0.09,-0.27,0.99,2.45,-3.08,-1.75
0.09,-0.27,0.99,0.63,-2.8,-1.26
0.09,-0.27,0.99,-0.14,-2.03,-0.56
0.09,-0.27,0.99,-1.26,-1.82,-0.14
0.09,-0.27,1,-2.31,-2.31,-0.21
0.09,-0.28,1.01,-1.68,-2.8,-0.35
0.09,-0.27,1.01,0.49,-3.08,-0.91
0.09,-0.27,1.01,1.75,-3.36,-1.26
0.09,-0.26,1.01,1.19,-3.71,-0.7
0.08,-0.27,1,0.21,-4.2,0.63
0.08,-0.28,0.99,-0.42,-3.99,0.77
0.09,-0.28,0.99,0.63,-3.92,0.63
0.09,-0.28,0.98,0.63,-2.66,-0.07
0.09,-0.28,0.98,-0.21,-2.17,0
0.09,-0.28,0.99,-1.4,-2.17,-0.14
0.09,-0.29,1,-0.98,-2.45,-0.14
0.09,-0.28,1,0,-2.73,-0.56
0.09,-0.27,1,0.35,-3.5,-0.63
0.08,-0.27,1,0.42,-3.64,-0.28
0.08,-0.28,0.99,0.84,-3.36,-0.14
0.08,-0.28,0.98,1.33,-2.8,0.21
0.09,-0.28,0.98,0.63,-2.03,0
0.09,-0.29,0.99,-0.63,-1.12,-0.35
0.09,-0.29,0.99,-1.33,-0.98,-0.56
0.09,-0.29,1,-0.98,-0.7,-1.75
0.09,-0.29,1,0.63,-1.05,-2.24
0.08,-0.27,1,1.82,-1.54,-2.52
0.09,-0.26,1,1.54,-1.54,-2.24
0.09,-0.25,1,0.91,-1.4,-1.12
0.08,-0.25,1,0.28,-2.1,0.7
0.08,-0.26,1.01,-1.12,-2.8,2.38
0.09,-0.27,1.01,-1.12,-3.01,3.08
0.09,-0.28,1.01,-0.84,-3.71,2.59
0.1,-0.29,1.01,-0.21,-3.99,0.98
0.1,-0.3,1,0.84,-3.78,-0.77
0.09,-0.29,0.99,1.54,-3.57,-2.38
0.09,-0.28,0.99,0.84,-2.87,-2.73
0.08,-0.28,0.99,1.05,-2.38,-2.24
0.07,-0.28,0.99,1.05,-2.31,-1.05
0.08,-0.27,0.99,0.14,-2.38,0
0.08,-0.27,0.99,-0.21,-2.1,0.7
0.09,-0.27,0.99,0.35,-1.68,0.98
0.09,-0.27,0.99,-0.35,-1.47,0.56
0.1,-0.28,0.99,-0.77,-1.68,-0.14
0.09,-0.29,1,0.49,-1.47,-0.56
0.09,-0.28,1,1.89,-1.19,-1.12
0.09,-0.28,1,1.26,-1.33,-1.19
0.09,-0.27,1,0.35,-1.54,-1.47
0.08,-0.27,1,0.63,-1.33,-0.56
0.08,-0.27,1,1.54,-0.98,0.28
0.08,-0.26,1,1.68,-0.7,1.12
0.08,-0.26,1,0.21,-0.49,2.17
0.09,-0.27,1,-0.84,-0.84,3.15
0.08,-0.28,1,-0.49,-1.19,2.87
0.09,-0.28,1,0.21,-1.89,1.82
0.1,-0.28,1,0.49,-1.61,0.21
0.09,-0.28,1,0.35,-1.61,-0.84
0.08,-0.28,1,-0.42,-1.96,-1.05
0.08,-0.28,1,0,-2.38,-0.91
0.07,-0.28,0.99,0.7,-2.24,-0.63
0.07,-0.27,0.99,1.26,-1.4,0
0.07,-0.27,0.98,1.05,-0.77,0.98
0.07,-0.27,0.99,0.35,0.07,2.03
0.08,-0.27,0.99,-0.91,0,2.1
0.1,-0.27,1.01,-1.96,-0.35,1.05
0.09,-0.28,1.01,-0.98,-0.56,0.14
0.08,-0.28,1.01,1.19,-1.75,-0.42
0.09,-0.28,1.01,1.96,-3.08,-0.49
0.09,-0.27,1,1.33,-3.57,-0.21
0.08,-0.27,0.99,1.61,-3.01,0.49
0.07,-0.28,0.98,2.45,-1.75,1.82
0.07,-0.28,0.98,1.68,-1.47,2.73
0.08,-0.28,0.98,0.07,-0.49,2.94
0.09,-0.28,0.98,-1.75,0.42,1.89
0.09,-0.29,0.99,-2.31,0.49,0.91
0.09,-0.29,1.01,-1.82,0.35,-0.35
0.09,-0.28,1.02,-1.19,-0.35,-1.12
0.08,-0.28,1.02,-0.49,-2.03,-1.4
0.08,-0.28,1.03,1.19,-3.5,-1.68
0.08,-0.28,1.02,3.64,-4.41,-1.47
0.07,-0.27,1.01,4.76,-3.99,-0.98
0.08,-0.26,0.99,3.71,-3.78,-0.14
0.08,-0.27,0.98,1.4,-2.94,0.91
0.08,-0.27,0.98,-0.28,-1.82,1.75
0.08,-0.28,0.98,-1.12,-0.91,2.31
0.08,-0.28,0.99,-1.82,-1.12,2.31
0.08,-0.28,0.99,-2.17,-2.38,1.61
0.08,-0.28,1,-1.61,-3.15,0.14
0.08,-0.28,1,0.14,-3.57,-1.47
0.07,-0.28,1,2.24,-3.78,-2.38
0.08,-0.28,1,2.87,-3.36,-3.15
0.08,-0.27,0.99,2.24,-2.66,-2.52
0.07,-0.27,0.99,1.47,-1.75,-1.4
0.07,-0.26,0.99,0.35,-0.91,-0.28
0.08,-0.26,0.99,-0.91,-0.35,0.98
0.08,-0.26,1,-2.45,-0.42,1.68
0.08,-0.27,1.01,-3.43,-1.54,1.68
0.08,-0.27,1.02,-2.87,-3.08,1.26
0.09,-0.28,1.02,-0.84,-4.34,-0.21
0.09,-0.28,1.02,0.98,-5.32,-2.03
0.08,-0.28,1.01,3.08,-6.02,-2.8
0.07,-0.28,0.99,4.13,-5.46,-2.52
0.06,-0.27,0.98,3.71,-4.55,-1.19
0.07,-0.27,0.97,1.61,-3.15,0.14
0.07,-0.27,0.96,-0.63,-1.61,1.19
0.08,-0.28,0.97,-2.03,-0.35,1.26
0.08,-0.28,0.99,-2.8,0.14,1.05
0.09,-0.28,1,-3.5,-0.35,-17.92
0.1,-0.28,1.02,-2.45,-1.4,-1.68
0.09,-0.27,1.03,-0.35,-3.08,-2.87
0.08,-0.27,1.03,2.1,-4.83,-3.08
0.07,-0.27,1.02,3.57,-6.23,-2.17
0.07,-0.27,1.01,3.85,-6.86,-1.12
0.07,-0.27,0.98,3.92,-5.39,-0.21
0.08,-0.28,0.97,3.29,-4.34,0.14
0.09,-0.28,0.97,2.31,-2.94,-0.28
0.09,-0.29,0.96,0.35,-0.28,-1.26
0.09,-0.28,0.97,-1.19,1.54,-1.75
0.09,-0.27,0.99,-3.71,2.24,-1.68
0.08,-0.26,1,-5.46,0.77,-1.47
0.08,-0.26,1.03,-5.04,-1.61,-1.19
0.08,-0.28,1.04,-1.82,-4.06,-1.47
0.06,-0.29,1.03,3.99,-5.74,-1.96
0.08,-0.28,1,7.49,-6.23,-2.66
0.1,-0.26,0.99,5.74,-5.74,-3.29
0.1,-0.26,0.97,3.43,-4.34,-3.71
0.08,-0.26,0.97,1.89,-2.66,-3.15
0.07,-0.25,0.97,0.35,-1.26,-2.31
0.08,-0.25,0.97,-1.26,-0.07,-0.35
0.08,-0.25,0.98,-3.08,0.7,0.49
0.09,-0.26,1,-4.41,0.35,1.26
0.09,-0.26,1.01,-5.11,-0.77,1.82
0.08,-0.28,1.02,-3.71,-2.59,1.47
0.09,-0.29,1.02,0.14,-3.71,0.21
0.09,-0.28,1.02,2.59,-4.41,-1.61
0.09,-0.28,1,3.15,-4.76,-2.45
0.09,-0.27,0.99,2.73,-4.13,-2.45
0.09,-0.27,0.99,0.91,-3.36,-2.17
0.08,-0.28,0.99,-0.35,-2.03,-1.54
0.08,-0.27,0.99,-1.05,-2.24,0.21
0.08,-0.27,0.99,-2.52,-2.31,1.19
0.08,-0.27,1,-1.96,-2.24,1.89
0.08,-0.29,1,-0.91,-2.1,1.54
0.09,-0.28,1,-0.28,-1.96,0.42
0.1,-0.28,1,-0.56,-2.31,-1.12
0.09,-0.29,1.01,-0.28,-2.24,-1.89
0.08,-0.28,1.01,-0.07,-3.01,-1.82
0.08,-0.27,1.01,-0.14,-3.78,-1.47
0.07,-0.27,1.01,0.91,-3.92,-0.14
0.07,-0.27,1,1.68,-3.99,0.98
0.08,-0.28,1,1.33,-4.41,1.4
0.09,-0.29,0.99,0.98,-4.62,1.33
0.09,-0.29,0.98,1.54,-3.85,0
0.1,-0.29,0.98,1.12,-3.22,-1.47
0.1,-0.28,0.99,-0.21,-3.36,-3.01
0.08,-0.28,0.99,0.56,-3.29,-3.5
0.07,-0.27,0.99,2.1,-2.8,-3.01
0.07,-0.26,0.99,2.66,-2.73,-1.82
0.08,-0.25,0.99,1.12,-2.38,-0.77
0.08,-0.26,0.99,-0.21,-1.82,0.63
0.08,-0.26,1,-1.47,-1.26,1.33
0.09,-0.27,1,-2.17,-1.33,1.26
0.1,-0.27,1.01,-2.24,-1.96,0.98
0.1,-0.28,1.02,-1.4,-3.15,-0.28
0.09,-0.28,1.02,1.12,-4.55,-0.98
0.08,-0.28,1.01,3.78,-4.97,-1.54
0.08,-0.27,1,4.06,-5.18,-1.19
0.08,-0.27,0.99,2.59,-4.83,-0.77
0.08,-0.27,0.98,1.05,-4.13,-0.14
0.08,-0.28,0.98,-0.63,-3.29,-0.07
0.08,-0.28,0.98,-1.19,-2.31,-0.28
0.09,-0.28,0.99,-1.12,-2.24,-0.98
0.09,-0.27,1,-1.26,-2.59,-1.89
0.09,-0.27,1,-0.63,-2.52,-2.73
0.08,-0.27,1,1.68,-2.8,-2.45
0.08,-0.26,0.99,2.03,-3.08,-1.61
0.08,-0.26,0.99,0.7,-3.5,-0.7
0.08,-0.27,0.98,0.07,-2.94,-0.14
0.08,-0.28,0.97,1.05,-2.45,0.14
0.09,-0.28,0.97,-0.14,-1.61,0.07
0.1,-0.27,0.98,-2.66,-0.91,-0.56
0.1,-0.28,0.98,-3.64,0.07,-1.47
0.09,-0.28,0.99,-3.01,0.49,-1.82
0.08,-0.28,1,-2.45,0.28,-1.75
0.09,-0.27,1.01,-1.96,-0.14,-1.68
0.09,-0.27,1.01,-0.84,-0.63,-1.75
0.09,-0.27,1.01,0,-1.33,-1.05
0.09,-0.27,1.02,0.07,-2.24,-0.84
0.09,-0.27,1.01,1.05,-3.78,-0.42
0.1,-0.27,1.01,1.47,-4.2,-1.19
0.09,-0.28,1,1.82,-3.57,-1.54
0.09,-0.28,0.98,1.75,-3.01,-1.19
0.09,-0.28,0.98,0.21,-2.24,-0.7
0.09,-0.28,0.98,-2.03,-1.61,-0.56
0.09,-0.28,0.98,-2.1,-0.91,-0.56
0.09,-0.29,0.99,-1.12,0.14,-0.91
0.09,-0.28,0.99,-0.7,-0.14,-1.05
0.09,-0.28,1,-0.91,-0.42,-1.82
0.09,-0.28,1,-0.7,-0.91,-2.24
0.09,-0.28,1,-0.07,-1.75,-2.38
0.09,-0.28,1.01,0.42,-2.52,-2.45
0.09,-0.27,1.01,0.21,-3.22,-2.45
0.09,-0.27,1.01,0.77,-3.92,-2.24
0.09,-0.27,1,2.38,-3.64,-2.38
0.09,-0.27,1,2.66,-3.43,-1.96
0.09,-0.27,0.99,1.4,-3.08,-1.61
0.08,-0.27,0.99,0.42,-2.24,-0.98
0.08,-0.26,0.99,-0.49,-1.68,-0.14
0.09,-0.27,0.99,-1.12,-1.26,0.7
0.09,-0.27,1,-1.26,-1.33,0.77
0.09,-0.27,1,-1.61,-1.68,0.63
0.09,-0.27,1,-1.05,-1.82,0.28
0.09,-0.27,1,-0.77,-2.87,-0.21
0.08,-0.28,1,0.35,-3.36,-0.91
0.08,-0.29,0.99,2.1,-3.43,-1.96
0.09,-0.28,0.99,3.36,-3.29,-2.24
0.08,-0.27,0.98,1.61,-2.59,-1.89
0.08,-0.27,0.98,0.07,-1.47,-0.98
0.08,-0.27,0.99,-0.98,-0.98,0.35
0.08,-0.27,0.99,-1.54,-1.12,1.19
0.08,-0.27,1,-1.4,-1.54,1.61
0.08,-0.28,1,-0.63,-2.17,1.05
0.09,-0.29,1,0.63,-2.87,-0.35
0.09,-0.29,0.98,2.03,-2.24,-2.17
0.09,-0.28,0.98,2.31,-1.68,-3.01
0.09,-0.27,0.99,-0.14,-1.12,-3.43
0.08,-0.27,1,-1.61,-0.49,-2.59
0.08,-0.26,1.01,-2.17,-0.49,-0.77
0.07,-0.26,1.02,-2.31,-0.77,1.33
0.08,-0.27,1.02,-1.61,-1.47,2.24
0.09,-0.27,1.02,-1.12,-2.87,2.59
0.1,-0.28,1.02,-0.77,-3.22,1.47
0.1,-0.29,1.02,-0.21,-4.13,0.42
0.09,-0.29,1.01,1.4,-5.25,-0.56
0.09,-0.3,1,2.8,-5.39,-2.03
0.09,-0.29,0.99,4.13,-5.11,-3.15
0.08,-0.28,0.98,3.15,-4.62,-3.08
0.08,-0.27,0.97,1.47,-3.57,-2.17
0.08,-0.27,0.97,0.49,-2.52,-0.77
0.07,-0.27,0.97,-0.63,-1.33,0
0.08,-0.27,0.98,-1.26,-0.42,1.12
0.08,-0.28,0.99,-1.96,-0.63,1.75
0.09,-0.28,1,-2.8,-1.26,1.26
0.09,-0.29,1.01,-1.47,-2.1,-0.14
0.09,-0.29,1.01,0.49,-2.45,-1.82
0.09,-0.29,1.01,2.66,-3.15,-2.8
0.08,-0.28,1,3.5,-3.57,-3.15
0.08,-0.27,0.99,3.29,-3.5,-2.87
0.08,-0.27,0.98,2.03,-2.52,-1.96
0.08,-0.27,0.97,0.56,-1.33,-0.7
0.08,-0.26,0.98,-1.68,-0.49,0.28
0.09,-0.27,1,-3.15,-0.42,0.7
0.09,-0.27,1.01,-2.52,-0.7,0.49
0.09,-0.28,1.01,-0.7,-1.68,-0.49
0.09,-0.28,1.01,1.26,-2.94,-1.12
0.09,-0.27,1.01,1.89,-3.57,-1.61
0.09,-0.27,1,1.75,-3.92,-1.96
0.09,-0.28,0.99,1.96,-3.64,-1.82
0.08,-0.27,0.98,1.33,-3.43,-1.68
0.09,-0.28,0.98,0.35,-2.94,-1.54
0.09,-0.27,0.98,0.63,-2.03,-1.33
0.08,-0.26,0.98,0.14,-1.47,-0.84
0.08,-0.25,0.99,-1.26,-1.4,0.42
0.09,-0.26,1,-2.1,-1.96,1.05
0.08,-0.28,1,-1.33,-2.17,0.84
0.08,-0.29,1,0.77,-2.59,0.35
0.09,-0.29,1,1.47,-3.29,-0.63
0.1,-0.29,0.99,1.61,-2.87,-2.03
0.09,-0.28,0.99,2.1,-1.82,-2.73
0.09,-0.27,0.99,1.47,-1.4,-2.59
0.09,-0.26,1,-1.26,-2.1,-1.54
0.08,-0.27,1.01,-1.82,-2.59,-0.56
0.07,-0.28,1.01,0.77,-3.43,-0.14
0.07,-0.28,1,2.87,-3.85,0.14
0.1,-0.27,1,2.38,-4.55,-0.42
0.1,-0.28,0.99,1.05,-3.92,-1.68
0.09,-0.28,0.99,1.12,-2.8,-2.59
0.09,-0.28,0.99,1.12,-1.47,-3.01
0.08,-0.27,0.99,1.05,-1.26,-1.96
0.08,-0.26,0.99,-0.49,-1.33,-0.07
0.08,-0.26,1,-1.89,-1.82,1.12
0.08,-0.27,1,-1.61,-2.24,1.68
0.09,-0.27,1.01,-0.56,-2.59,0.7
0.09,-0.28,1.01,1.05,-3.08,-0.77
0.09,-0.28,1,2.73,-3.29,-1.54
0.09,-0.27,0.99,3.08,-3.57,-2.31
0.09,-0.27,0.98,1.96,-2.94,-1.68
0.08,-0.27,0.98,0.35,-2.31,-0.21
0.08,-0.27,0.98,-1.47,-1.75,0.42
0.08,-0.28,0.99,-1.4,-1.61,0.63
0.08,-0.28,0.99,-0.49,-1.68,0.35
0.09,-0.28,0.99,0.77,-2.31,-0.28
0.09,-0.28,1,2.24,-3.22,-0.07
0.08,-0.27,1,1.26,-2.31,-1.12
0.09,-0.28,0.98,1.75,-1.89,-0.84
0.09,-0.26,0.99,1.26,-0.35,-0.77
0.08,-0.27,1,0.14,-0.21,0.7
0.08,-0.27,1.01,-1.05,-1.26,0.49
0.09,-0.28,1.01,-0.21,-1.12,0.56
0.09,-0.27,1.01,0.84,-1.05,-0.42
0.09,-0.27,1.01,0.98,-1.47,-0.56
0.09,-0.27,1.01,0.63,-2.03,-0.56
0.08,-0.27,1.01,1.68,-2.66,-0.35
0.08,-0.27,1.01,2.73,-2.8,0
0.08,-0.27,1,2.52,-3.15,0.28
0.09,-0.27,1,1.4,-3.15,0.63
0.09,-0.27,1,0.35,-2.87,0.21
0.09,-0.28,1,0.91,-2.87,-0.07
0.09,-0.27,1,1.26,-2.73,-0.56
0.09,-0.27,1,1.05,-2.38,-0.49
0.09,-0.27,1,0.84,-2.52,-0.56
0.09,-0.28,1,0.56,-2.1,-0.56
0.09,-0.27,1,0.42,-1.96,-0.49
0.09,-0.27,1,-0.42,-2.38,-0.42
0.08,-0.28,0.99,1.4,-2.52,-0.21
0.09,-0.27,1,0.7,-2.59,-0.91
0.09,-0.28,0.99,1.4,-2.03,-1.61
0.09,-0.26,1,0.98,-2.31,-1.26
0.08,-0.25,1,-0.98,-2.38,-0.42
0.08,-0.25,1,-1.26,-2.87,1.05
0.08,-0.25,1.01,-0.7,-3.08,2.03
0.08,-0.26,1.01,0.42,-3.36,2.94
0.08,-0.27,1,0.63,-3.78,3.08
0.09,-0.27,0.99,0.28,-3.78,2.45
0.1,-0.28,0.99,0.07,-3.01,1.19
0.09,-0.28,0.99,0.7,-1.61,0.07
0.09,-0.27,0.99,0.63,-1.12,-0.56
0.09,-0.27,0.99,-0.14,-0.98,-0.91
0.08,-0.26,1,-0.49,-1.4,-0.84
0.09,-0.27,1,-0.49,-1.61,-0.84
0.08,-0.26,1,-0.35,-1.19,-0.35
0.08,-0.26,1,-0.84,-1.75,-0.35
0.08,-0.27,1,0,-1.82,0.28
0.07,-0.27,1,1.26,-1.61,0.98
0.08,-0.27,0.99,1.05,-1.89,0.63
0.09,-0.27,0.99,0.84,-1.61,0
0.08,-0.28,0.99,1.4,-0.42,-0.35
0.08,-0.27,0.99,1.33,0.07,0
0.08,-0.28,0.99,-0.84,-0.42,0
0.09,-0.28,1,-2.03,-0.91,-0.07
0.08,-0.29,1.01,-0.14,-1.33,-0.7
0.08,-0.29,1,2.59,-1.05,-0.7
0.07,-0.27,1,2.94,-1.61,-1.05
0.08,-0.26,1,1.54,-1.4,-1.19
0.09,-0.27,1,1.05,-1.05,-1.54
0.08,-0.28,1,0.91,-1.05,-2.38
0.07,-0.27,1,1.61,-1.54,-1.75
0.07,-0.27,0.99,2.31,-1.54,-1.4
0.07,-0.26,0.99,1.96,-1.33,-0.07
0.07,-0.26,0.99,0.49,-1.54,0.84
0.08,-0.27,0.99,-0.84,-0.98,0.63
0.08,-0.28,0.99,-0.7,-0.28,0.21
0.08,-0.28,0.99,-0.21,0.35,-0.49
0.08,-0.28,1,-1.19,0.42,-0.91
0.09,-0.27,1.01,-2.1,-0.42,-1.89
0.08,-0.28,1.02,-1.19,-0.56,-2.66
0.08,-0.27,1.02,1.26,-0.98,-2.45
0.07,-0.27,1.02,3.01,-1.96,-1.75
0.07,-0.26,1.01,3.71,-2.73,-0.98
0.07,-0.26,0.99,4.06,-3.08,-0.7
0.08,-0.26,0.97,3.57,-2.59,-0.21
0.08,-0.26,0.97,2.73,-1.54,-0.56
0.08,-0.26,0.97,1.82,0.63,-0.98
0.08,-0.27,0.96,0.07,1.75,-1.19
0.08,-0.26,0.98,-2.03,2.87,-0.49
0.07,-0.26,0.99,-3.57,3.5,0
0.07,-0.27,1,-1.96,3.92,0.77
0.07,-0.26,1.01,-1.19,3.15,0.49
0.08,-0.26,1.01,-3.15,0.98,0.56
0.08,-0.27,1.03,-3.01,-1.19,0.35
0.07,-0.27,1.03,-0.28,-2.52,-0.21
0.08,-0.09,1.03,1.54,-1.96,-1.89
0.08,-0.09,1.03,1.68,-0.98,-2.45
0.07,-0.09,1.03,2.45,0.56,-2.31
0.06,-0.09,1.03,3.43,0.77,-1.54
0.06,-0.09,1.04,4.9,0.77,-0.35
0.07,-0.08,1.04,5.25,0.35,0.7
0.07,-0.08,1.04,4.69,-0.42,1.19
0.07,-0.09,1.03,4.69,-0.7,1.61
0.08,-0.08,1.03,3.01,-1.75,1.19
0.07,-0.1,1.03,2.73,-2.24,0.42
0.07,-0.1,1.03,3.15,-2.45,-0.35
0.07,-0.1,1.03,1.96,-3.36,-0.63
0.08,-0.1,1.03,0.07,-3.01,-1.12
0.08,-0.1,1.03,0.7,-2.03,-2.1
0.07,-0.09,1.04,1.19,-1.05,-3.36
0.06,-0.08,1.04,2.1,-1.68,-2.45
0.06,-0.07,1.04,2.38,-2.52,-1.47
0.06,-0.07,1.04,2.52,-3.08,-0.07
0.06,-0.07,1.03,1.47,-3.22,1.19
0.06,-0.09,1.03,2.59,-2.17,1.68
0.06,-0.1,1.03,6.3,-1.68,1.89
0.06,-0.09,1.03,6.93,-2.59,2.03
0.07,-0.09,1.02,5.74,-2.73,2.17
0.08,-0.08,1.01,2.66,-2.45,1.54
0.08,-0.09,1.02,-0.77,-1.61,0
0.08,-0.11,1.03,-1.89,-0.56,-2.45
0.08,-0.11,1.04,-1.26,-0.56,-3.43
0.06,-0.1,1.05,0,-0.42,-4.34
0.05,-0.09,1.05,1.61,-0.35,-3.15
0.05,-0.07,1.05,2.94,-0.91,-1.47
0.05,-0.08,1.04,2.31,-1.96,1.54
0.06,-0.08,1.05,2.73,-3.43,1.89
0.07,-0.09,1.04,3.57,-3.5,1.82
0.08,-0.08,1.02,2.8,-4.55,0.98
0.08,-0.09,1.02,0.14,-3.92,-0.91
0.08,-0.1,1.01,0.28,-2.31,-1.96
0.07,-0.1,1.02,0.14,-0.98,-3.08
0.07,-0.09,1.03,-1.05,0.07,-3.36
0.06,-0.08,1.04,-2.52,-0.21,-2.03
0.05,-0.08,1.05,-2.03,-1.68,-0.28
0.05,-0.08,1.06,0,-2.59,0.07
0.05,-0.09,1.05,3.85,-3.22,0
0.06,-0.08,1.04,4.62,-4.55,0.7
0.07,-0.07,1.03,2.52,-5.04,0.91
0.07,-0.08,1.02,1.82,-4.76,0.49
0.07,-0.09,1.02,1.26,-3.78,0.07
0.07,-0.09,1.02,0.63,-1.96,-0.98
0.07,-0.09,1.02,-1.19,-1.33,-1.82
0.07,-0.09,1.03,-2.66,-1.19,-2.24
0.06,-0.09,1.03,-2.94,-0.7,-2.73
0.06,-0.09,1.04,-0.7,0.14,-2.94
0.05,-0.08,1.05,1.75,0.14,-2.66
0.06,-0.06,1.05,1.33,-1.47,-0.84
0.05,-0.06,1.05,0.21,-2.52,1.19
0.06,-0.07,1.04,-0.07,-2.87,2.24
0.07,-0.08,1.04,-0.84,-3.64,2.03
0.07,-0.1,1.03,0.28,-3.64,1.4
0.07,-0.1,1.02,0.56,-3.5,0.28
0.07,-0.1,1.02,-0.28,-2.94,-1.4
0.08,-0.1,1.01,-2.1,-2.03,-3.01
0.07,-0.09,1.02,-3.78,-0.42,-3.71
0.06,-0.1,1.03,-2.38,1.33,-3.57
0.04,-0.09,1.05,0,1.05,-2.31
0.04,-0.08,1.06,1.47,-0.7,-0.98
0.05,-0.07,1.06,1.68,-2.8,0.35
0.06,-0.07,1.05,3.01,-3.43,1.54
0.07,-0.08,1.03,2.45,-3.78,0.63
0.07,-0.1,1.02,1.33,-4.06,0.07
0.07,-0.11,1.02,2.24,-3.08,-1.68
0.07,-0.1,1.02,3.08,-2.17,-3.43
0.06,-0.09,1.01,2.17,-1.82,-3.43
0.06,-0.08,1.02,0.49,-1.47,-2.31
0.06,-0.08,1.03,-0.28,-0.42,-1.47
0.06,-0.08,1.03,0.21,-0.56,-1.4
0.06,-0.08,1.03,0.84,-0.14,-1.4
0.07,-0.08,1.03,0.84,0.14,-0.49
0.06,-0.07,1.04,0.7,0.14,-0.14
0.06,-0.07,1.05,2.59,0.14,-0.21
0.05,-0.07,1.07,5.88,-1.12,0.98
0.04,-0.07,1.07,12.53,-3.15,1.12
0.05,-0.06,1.07,14.56,-5.46,2.24
0.06,-0.05,1.04,12.11,-8.68,2.66
0.07,-0.07,1.01,9.59,-9.31,3.78
0.08,-0.07,1,5.11,-7.84,2.45
0.08,-0.09,0.98,3.15,-3.64,0.91
0.08,-0.08,0.99,1.82,2.17,-1.61
0.08,-0.08,0.99,-2.87,4.48,-0.98
0.06,-0.09,1.01,-5.81,5.81,-1.19
0.04,-0.1,1.03,-3.5,6.02,-2.24
0.04,-0.09,1.03,-1.26,4.34,-3.15
0.05,-0.06,1.03,-1.12,3.85,-2.31
0.06,-0.05,1.03,-2.1,4.41,-1.54
0.06,-0.05,1.03,-5.04,4.34,-1.19
0.06,-0.07,1.05,-3.71,4.13,-1.68
0.05,-0.08,1.06,0,3.78,-2.24
0.05,-0.07,1.06,1.96,0.7,-2.03
0.06,-0.04,1.07,0,-1.89,-2.1
0.05,-0.07,1.06,-0.49,-2.38,-2.17
0.05,-0.08,1.05,0.56,-2.73,-1.61
0.06,-0.07,1.04,0.35,-2.52,-1.05
0.06,-0.08,1.03,-0.63,-2.24,-0.98
0.05,-0.09,1.02,-1.61,-1.33,-1.12
0.05,-0.09,1.03,-2.87,-0.84,-1.54
0.06,-0.1,1.03,-2.52,-0.98,-1.05
0.05,-0.09,1.03,-0.91,-0.56,-2.24
0.04,-0.08,1.03,-0.56,-0.77,-2.59
0.03,-0.08,1.03,-0.7,-1.61,-3.36
0.04,-0.1,1.03,0.91,-1.33,-2.1
0.05,-0.09,1.02,0.77,-0.35,-1.61
0.04,-0.09,1.02,0.35,0,-1.47
0.03,-0.1,1.02,2.17,0.42,-1.33
0.04,-0.1,1.02,5.46,1.4,-1.61
0.04,-0.08,1.02,4.83,1.33,-1.54
0.03,-0.1,1.01,5.11,1.05,-2.1
0.03,-0.12,1,7,2.45,-2.73
0.03,-0.1,0.99,5.74,2.52,-2.66
0.03,-0.09,0.99,2.87,1.96,-2.52
0.03,-0.08,1.01,-0.7,1.33,-0.77
0.03,-0.08,1.02,-6.16,-1.26,-0.7
0.02,-0.1,1.01,-4.9,-2.17,-1.75
0.01,-0.09,0.99,1.12,-1.4,-4.76
0.03,-0.06,0.98,4.27,0.84,-6.58
0.03,-0.06,0.97,3.57,3.57,-6.02
0.02,-0.05,0.97,-0.77,4.41,-5.6
0.01,-0.08,0.97,-4.48,5.88,-5.11
0,-0.13,0.96,-4.55,7.84,-6.37
-0.01,-0.16,0.94,-0.35,10.01,-10.5
0,-0.16,0.92,2.03,14.49,-13.23
-0.02,-0.16,0.92,1.12,18.97,-14.14
-0.05,-0.22,0.94,5.95,23.52,-15.89
-0.08,-0.22,0.96,16.59,25.41,-20.02
-0.08,-0.19,0.96,24.29,24.08,-21
-0.07,-0.11,0.94,27.23,24.64,-19.95
-0.06,-0.02,0.92,22.89,26.95,-16.31
-0.06,0.04,0.89,12.95,30.8,-11.34
-0.05,0.05,0.88,0.35,35.84,-7.77
-0.04,-0.01,0.88,-9.66,41.23,-6.79
-0.02,-0.05,0.89,-17.15,47.04,-8.4
-0.04,-0.06,0.92,-25.41,49.56,-10.57
-0.08,-0.1,0.96,-33.25,48.86,-12.95
-0.13,-0.17,1.01,-29.47,44.31,-15.19
-0.19,-0.27,1.09,0.84,43.75,-18.13
-0.22,-0.23,1.12,37.94,41.58,-23.94
-0.22,-0.1,1.11,61.67,36.19,-23.31
-0.16,-0.01,1.09,69.51,30.87,-19.18
-0.11,0.03,1.04,64.54,28.21,-6.3
-0.1,0.1,0.98,49.77,30.24,-2.38
-0.09,0.06,0.95,29.89,33.39,-1.33
-0.08,0.01,0.92,15.19,40.81,0.91
-0.07,-0.07,0.92,9.03,49.91,-2.87
-0.1,-0.06,0.94,1.47,57.61,-10.43
-0.14,-0.08,0.97,-10.08,59.15,-20.02
-0.17,-0.18,1.03,-4.55,60.9,-22.68
-0.24,-0.15,1.12,4.9,54.18,-23.73
-0.3,-0.14,1.24,26.11,39.69,-18.41
-0.33,-0.02,1.26,63.56,25.13,-14.21
-0.28,0.13,1.18,89.39,10.92,-8.12
-0.19,0.18,1.07,79.87,-0.56,-8.12
-0.1,0.1,0.99,66.43,-0.14,-12.95
-0.09,0,0.95,57.89,8.33,-21.91
-0.13,-0.02,0.94,52.36,15.12,-28.91
-0.17,0.01,0.95,44.8,21.21,-33.53
-0.19,0.05,0.96,39.27,24.08,-38.08
-0.21,0.03,1,39.48,28.14,-38.43
-0.29,0,1.06,57.75,31.99,-33.67
-0.36,0.03,1.09,89.88,27.65,-24.22
-0.34,0.16,1.05,113.68,16.66,-13.23
-0.28,0.24,1,123.69,9.73,-8.05
-0.19,0.26,0.96,114.73,11.27,-4.06
-0.16,0.24,0.93,97.79,16.24,-5.46
-0.16,0.19,0.93,77.7,22.61,-9.03
-0.18,0.19,0.94,64.4,26.88,-14.56
-0.19,0.2,0.9,44.52,23.87,-20.51
-0.18,0.25,0.9,22.75,22.75,-28.91
-0.18,0.21,0.91,1.47,24.57,-32.27
-0.25,0.18,0.93,-0.98,27.16,-37.1
-0.26,0.21,0.94,5.53,27.58,-39.27
-0.26,0.24,0.95,5.6,29.47,-36.4
-0.26,0.28,0.95,6.37,31.99,-29.89
-0.27,0.29,0.96,10.99,34.86,-23.66
-0.27,0.25,0.94,25.34,38.99,-22.12
-0.26,0.2,0.91,48.51,46.48,-24.85
-0.28,0.17,0.94,72.94,49.77,-32.2
-0.28,0.2,0.94,89.11,45.85,-40.67
-0.26,0.26,0.92,85.12,37.31,-48.44
-0.25,0.25,0.91,80.01,29.05,-56.77
-0.26,0.21,0.9,85.68,22.82,-64.96
-0.37,0.24,0.87,94.85,20.79,-64.96
-0.37,0.35,0.85,100.03,20.51,-65.59
-0.31,0.41,0.84,102.76,20.86,-65.87
-0.32,0.43,0.85,104.93,19.95,-61.95
-0.36,0.44,0.83,106.05,17.29,-51.45
-0.34,0.42,0.79,118.3,10.36,-45.92
-0.3,0.38,0.83,145.25,5.25,-48.16
-0.32,0.37,0.78,158.69,12.88,-52.36
-0.32,0.39,0.8,185.5,6.51,-54.6
-0.29,0.38,0.85,232.68,7.91,-58.17
-0.31,0.42,0.77,237.44,14.42,-65.52
-0.42,0.43,0.5,286.86,5.32,-81.55
-0.41,0.53,0.51,344.82,-4.06,-89.32
-0.41,0.93,0.53,346.43,-3.92,-83.02
-0.42,1.03,0.7,269.36,31.64,-71.96
-0.43,0.81,0.76,186.2,43.68,-53.41
-0.41,0.66,0.66,141.05,45.08,-48.79
-0.41,0.62,0.63,140.56,39.13,-56.7
-0.4,0.6,0.63,152.25,36.89,-67.62
-0.42,0.61,0.62,158.62,32.13,-80.92
-0.42,0.57,0.59,158.2,20.44,-80.29
-0.45,0.65,0.61,141.4,7.21,-77.21
-0.47,0.71,0.58,122.15,5.39,-78.75
-0.53,0.84,0.59,85.96,-0.91,-79.38
-0.4,1.08,0.51,73.71,-11.9,-56.84
-0.42,0.88,0.44,84.91,-10.01,-45.78
-0.5,0.83,0.5,76.02,-5.95,-33.67
-0.47,0.76,0.45,74.69,-9.94,-25.48
-0.52,0.71,0.43,84.91,-9.1,-27.51
-0.55,0.71,0.44,91.77,-3.99,-29.19
-0.56,0.69,0.41,93.66,-4.27,-32.2
-0.56,0.69,0.4,97.23,-3.29,-39.76
-0.55,0.66,0.44,100.73,8.47,-44.66
-0.57,0.66,0.4,105.42,17.71,-46.83
-0.5,0.6,0.35,131.6,26.25,-47.04
-0.52,0.55,0.3,164.43,37.94,-52.22
-0.63,0.58,0.28,230.65,30.17,-69.44
-0.59,0.5,0.25,302.47,29.75,-81.13
-0.65,0.45,0.13,388.99,32.83,-102.13
-0.71,0.55,0.08,450.1,33.6,-142.31
-0.49,1.09,0.12,520.66,66.71,-233.66
-0.91,1.4,0.09,334.74,-2.8,-182.56
-0.94,0.96,0.15,204.54,-2.94,-73.57
-0.85,0.86,0.08,100.73,4.13,-63.49
-0.72,0.73,0.04,71.4,10.15,-66.43
-0.71,0.74,-0.02,47.67,3.85,-63.42
-0.76,0.74,-0.03,32.2,4.9,-65.38
-0.79,0.74,-0.04,34.16,10.85,-72.59
-0.82,0.75,-0.06,46.2,14.91,-83.65
-0.84,0.71,-0.09,57.75,17.15,-93.87
-0.86,0.65,-0.09,70.21,23.31,-104.86
-0.89,0.62,-0.09,91.28,29.19,-113.05
-0.9,0.67,-0.06,117.04,35,-124.81
-0.9,0.67,-0.03,131.32,40.6,-135.1
-0.91,0.65,-0.01,135.94,38.57,-134.26
-0.89,0.66,0.01,122.71,29.54,-124.25
-0.87,0.73,0.03,108.22,20.44,-113.33
-0.9,0.78,0.01,93.87,7.35,-104.37
-0.94,0.73,-0.02,79.8,-3.08,-93.17
-0.92,0.7,-0.04,65.73,-5.32,-70.28
-0.95,0.65,-0.09,46.34,-1.26,-43.4
-0.98,0.68,-0.15,24.85,-0.84,-22.54
-1,0.7,-0.19,14.35,7,-12.04
-0.98,0.64,-0.21,8.47,18.97,-13.93
-0.97,0.58,-0.22,23.87,35.21,-25.13
-0.95,0.59,-0.25,46.27,48.3,-29.68
-0.94,0.67,-0.24,51.24,54.46,-31.92
-0.9,0.66,-0.21,50.54,62.02,-35.07
-0.88,0.62,-0.16,54.95,72.31,-31.92
-0.92,0.56,-0.12,59.22,73.43,-26.46
-0.94,0.48,-0.1,69.23,69.58,-23.03
-0.94,0.45,-0.11,80.5,62.02,-18.9
-0.93,0.48,-0.14,81.55,40.53,-11.9
-0.95,0.5,-0.18,62.65,25.41,-3.36
-0.93,0.54,-0.23,44.66,22.82,-1.89
-0.91,0.53,-0.3,27.65,31.99,0.07
-0.91,0.5,-0.32,17.01,44.24,2.03
-0.92,0.44,-0.36,21.07,53.76,-0.56
-0.91,0.45,-0.35,35,60.55,-7.21
-0.88,0.47,-0.3,39.9,63.91,-11.62
-0.86,0.46,-0.27,40.04,66.57,-14.49
-0.84,0.42,-0.25,40.6,66.15,-13.86
-0.84,0.41,-0.23,38.64,61.74,-10.99
-0.82,0.36,-0.15,62.09,51.45,-19.6
-0.78,0.36,-0.11,103.74,27.65,-24.92
-0.85,0.39,-0.18,125.79,-11.83,-13.23
-0.79,0.35,-0.34,127.89,8.96,-17.57
-1.05,0.47,-0.67,75.11,26.67,-20.93
-0.83,0.44,-0.44,34.09,6.02,13.3
-0.81,0.46,-0.39,38.57,24.85,12.46
-0.85,0.33,-0.33,46.13,16.45,16.66
-0.86,0.37,-0.35,39.9,7.42,18.9
-0.89,0.37,-0.38,19.53,10.01,20.09
-0.86,0.35,-0.35,11.27,13.86,12.39
-0.85,0.33,-0.37,15.54,12.81,13.79
-0.82,0.34,-0.38,14.63,7.98,11.13
-0.83,0.32,-0.46,12.67,5.46,9.94
-0.85,0.26,-0.45,19.46,2.94,8.68
-0.9,0.28,-0.49,25.97,7.42,0.56
-0.93,0.31,-0.57,29.89,13.93,-12.25
-0.87,0.3,-0.57,38.36,19.67,-21.63
-0.8,0.34,-0.54,40.67,22.61,-22.82
-0.74,0.37,-0.47,31.36,18.41,-19.32
-0.76,0.37,-0.43,19.67,14.91,-9.52
-0.79,0.37,-0.4,6.23,12.18,-2.1
-0.77,0.41,-0.4,-14.56,11.34,4.62
-0.79,0.4,-0.47,-27.93,12.95,10.43
-0.78,0.32,-0.44,-22.61,11.48,15.68
-0.79,0.34,-0.45,-20.86,11.76,17.36
-0.81,0.36,-0.5,-24.5,13.72,20.51
-0.84,0.34,-0.51,-20.02,18.34,21.42
-0.84,0.33,-0.51,-14,23.8,20.16
-0.83,0.32,-0.51,-10.01,21.63,18.34
-0.8,0.32,-0.48,-3.22,16.24,15.33
-0.8,0.32,-0.45,-1.82,14.28,15.33
-0.76,0.31,-0.5,1.05,8.75,15.82
-0.78,0.27,-0.47,10.08,6.37,8.96
-0.74,0.31,-0.49,11.41,4.97,7.98
-0.76,0.35,-0.54,7.49,11.13,9.45
-0.73,0.37,-0.56,1.26,17.92,14.91
-0.73,0.38,-0.54,-6.86,22.68,18.34
-0.74,0.33,-0.52,-12.6,22.89,22.05
-0.77,0.33,-0.53,-14.07,22.96,23.31
-0.78,0.34,-0.5,-14.91,24.85,26.67
-0.77,0.39,-0.53,-21.63,35.14,28.91
-0.85,0.4,-0.58,-24.43,41.79,21.91
-0.88,0.41,-0.45,-15.54,58.8,15.05
-0.79,0.45,-0.59,-37.87,81.13,16.03
-0.49,0.18,-0.66,45.43,-3.08,-4.9
-0.71,0.35,-0.52,68.32,-48.3,4.83
-0.72,0.51,-0.18,45.85,-43.89,4.48
-0.6,0.34,-0.38,19.32,-17.71,8.89
-0.63,0.33,-0.54,23.31,-5.11,14.14
-0.58,0.4,-0.59,25.06,-14.42,18.13
-0.63,0.34,-0.52,19.39,-18.27,16.59
-0.65,0.39,-0.58,20.23,-23.1,11.2
-0.65,0.37,-0.63,22.96,-24.64,9.38
-0.74,0.36,-0.62,29.68,-23.03,6.72
-0.81,0.36,-0.61,36.68,-17.85,2.1
-0.82,0.3,-0.62,59.29,-2.38,-8.47
-0.63,0.26,-0.66,75.67,-3.43,-1.33
-0.62,0.42,-0.33,58.17,-7.07,8.82
-0.62,0.37,-0.41,50.33,-3.36,11.13
-0.68,0.35,-0.46,47.67,-6.51,14.91
-0.73,0.34,-0.5,45.22,-4.62,16.03
-0.71,0.33,-0.51,43.47,-1.26,16.73
-0.71,0.32,-0.55,47.67,0.35,14.84
-0.7,0.32,-0.58,51.94,1.12,13.72
-0.72,0.34,-0.58,48.86,1.89,13.93
-0.71,0.36,-0.51,49.98,-0.49,15.4
-0.71,0.3,-0.61,43.19,-7.14,18.83
-0.78,0.3,-0.62,45.08,-11.2,18.06
-0.8,0.3,-0.62,52.71,-5.6,14.42
-0.76,0.33,-0.58,56.84,1.4,9.59
-0.72,0.29,-0.59,61.74,7.42,3.85
-0.72,0.35,-0.55,57.19,11.2,1.4
-0.71,0.38,-0.53,46.97,10.57,2.73
-0.75,0.33,-0.54,46.62,7.07,7.42
-0.74,0.35,-0.53,45.22,5.11,11.2
-0.74,0.34,-0.51,39.06,6.02,13.23
-0.75,0.29,-0.58,31.36,9.8,18.55
-0.71,0.28,-0.59,35.07,15.89,20.72
-0.83,0.35,-0.64,33.53,11.83,17.57
-0.74,0.3,-0.59,35.84,13.72,14
-0.72,0.32,-0.63,35.84,19.04,10.36
-0.73,0.32,-0.62,32.13,23.31,9.87
-0.72,0.35,-0.64,20.44,25.83,14.7
-0.71,0.38,-0.66,6.44,31.71,22.4
-0.71,0.37,-0.63,-5.6,34.09,31.64
-0.73,0.39,-0.59,-10.36,30.17,36.68
-0.74,0.36,-0.6,-13.79,24.5,43.61
-0.75,0.35,-0.59,-14.35,18.76,46.34
-0.79,0.34,-0.64,-17.92,17.01,51.24
-0.82,0.37,-0.63,-26.32,12.88,57.26
-0.86,0.37,-0.7,-34.79,-2.31,56.63
-0.89,0.35,-0.67,-31.92,-21.56,48.65
-0.91,0.38,-0.68,-41.3,-27.37,53.41
-0.72,0.47,-0.68,-46.83,-31.43,46.06
-0.81,0.47,-0.59,-58.59,-36.33,33.74
-0.7,0.41,-0.67,-56.84,-34.16,28.07
-0.62,0.39,-0.63,-36.89,-35.7,28.35
-0.66,0.44,-0.54,-45.99,-32.13,19.88
-0.69,0.43,-0.53,-48.44,-22.61,14.7
-0.71,0.44,-0.57,-51.03,-15.68,9.8
-0.71,0.41,-0.59,-45.5,-9.87,0.14
-0.7,0.43,-0.58,-44.17,-5.81,-1.68
-0.7,0.43,-0.61,-44.8,-2.59,-0.7
-0.7,0.41,-0.63,-34.44,-7.21,-5.88
-0.7,0.42,-0.56,-31.57,-12.46,-4.69
-0.64,0.45,-0.51,-39.13,-15.26,-3.43
-0.48,0.35,-0.55,-46.41,-21.7,-4.41
-0.33,0.32,-0.52,-43.61,-22.19,8.12
-0.32,0.39,-0.46,-36.19,-12.18,16.24
-0.37,0.46,-0.43,-5.46,6.72,-1.4
-0.5,0.39,-0.45,10.22,27.65,-3.64
-0.57,0.44,-0.49,16.8,40.32,-3.5
-0.62,0.47,-0.51,17.36,47.74,-7.28
-0.79,0.52,-0.6,7.91,44.52,-6.65
-0.88,0.55,-0.69,-3.71,27.86,-7.42
-0.8,0.56,-0.61,-12.04,14.42,-10.85
-0.68,0.48,-0.52,-13.93,15.82,-10.92
-0.64,0.48,-0.51,-13.51,20.37,-8.68
-0.6,0.44,-0.53,-6.16,24.85,-6.72
-0.6,0.41,-0.55,2.73,31.5,-4.34
-0.65,0.42,-0.61,7.98,31.08,-2.38
-0.66,0.41,-0.6,11.34,28.63,0.07
-0.7,0.43,-0.61,12.39,26.04,2.87
-0.68,0.46,-0.61,8.4,24.22,6.44
-0.67,0.47,-0.61,4.27,21.07,9.38
-0.68,0.48,-0.62,0.49,16.52,11.41
-0.7,0.51,-0.64,-4.83,8.96,9.8
-0.68,0.48,-0.62,-7.7,-2.24,5.53
-0.63,0.44,-0.56,-3.71,-2.38,3.43
-0.6,0.36,-0.58,1.12,0.28,6.02
-0.58,0.41,-0.58,2.1,4.2,10.22
-0.6,0.45,-0.6,0.77,6.86,14.07
-0.64,0.49,-0.62,-3.78,8.05,16.87
-0.72,0.53,-0.64,-9.17,5.53,16.45
-0.74,0.57,-0.65,-17.08,-1.19,9.66
-0.68,0.54,-0.6,-24.92,-0.77,4.13
-0.52,0.36,-0.59,-16.73,0,-3.22
-0.54,0.42,-0.55,-11.76,3.99,-3.5
-0.5,0.41,-0.55,-4.2,8.75,-5.11
-0.53,0.42,-0.58,2.52,12.32,-6.09
-0.55,0.4,-0.62,8.12,14.91,-5.11
-0.59,0.45,-0.63,7.84,13.37,-4.97
-0.61,0.44,-0.62,9.59,13.3,-4.48
-0.62,0.46,-0.6,13.16,16.73,-5.46
-0.69,0.55,-0.65,9.17,14.63,-8.61
-0.67,0.52,-0.62,2.94,13.02,-11.83
-0.64,0.47,-0.6,3.64,13.44,-13.58
-0.61,0.43,-0.62,3.99,13.72,-13.02
-0.6,0.43,-0.63,3.36,11.83,-9.38
-0.59,0.45,-0.63,0.84,12.18,-6.58
-0.58,0.44,-0.62,-0.07,13.37,-4.97
-0.58,0.46,-0.62,-2.94,16.1,-1.75
-0.65,0.47,-0.66,-6.79,15.19,2.17
-0.67,0.43,-0.68,-1.12,12.32,2.87
-0.64,0.44,-0.62,3.92,10.5,6.02
-0.59,0.42,-0.61,4.55,12.04,10.99
-0.59,0.42,-0.62,10.22,11.62,12.81
-0.59,0.51,-0.59,3.01,12.53,16.03
-0.65,0.52,-0.72,-1.12,7.21,10.78
-0.64,0.52,-0.66,-3.01,1.82,8.05
-0.6,0.42,-0.65,-1.68,0.14,5.04
-0.66,0.48,-0.63,-2.24,-2.24,2.52
-0.58,0.37,-0.64,10.57,-2.59,3.22
-0.58,0.43,-0.63,17.08,-2.8,1.05
-0.55,0.41,-0.63,27.72,-1.96,0.7
-0.54,0.34,-0.71,36.61,-5.81,5.32
-0.6,0.48,-0.45,31.15,-2.59,8.75
-0.75,0.41,-0.75,5.32,9.59,8.61
-0.44,0.35,-0.96,11.13,-9.17,-4.41
-0.62,0.34,-0.65,50.26,-19.04,-1.4
-0.54,0.3,-0.69,67.2,-21.91,8.33
-0.59,0.49,-0.65,61.25,-24.78,7
-0.57,0.51,-0.66,56.42,-32.55,0.7
-0.62,0.57,-0.59,47.25,-34.09,-10.22
-0.71,0.46,-0.7,35.49,-35.84,-16.38
-0.7,0.43,-0.72,31.36,-40.18,-20.72
-0.71,0.41,-0.62,20.79,-31.43,-22.54
-0.64,0.43,-0.58,19.25,-24.85,-21.98
-0.63,0.43,-0.61,17.57,-18.9,-22.26
-0.63,0.46,-0.57,20.72,-19.74,-6.02
-0.7,0.39,-0.71,13.16,-16.38,-22.12
-0.57,0.55,-0.57,25.48,-24.01,-48.86
-0.43,0.57,-0.51,48.37,-21.49,-86.8
-0.6,0.42,-0.56,38.85,-7.56,-89.32
-0.7,0.14,-0.69,29.26,-3.29,-53.97
-0.63,0.22,-0.7,24.36,0.35,-28.07
-0.61,0.37,-0.82,6.93,1.4,-18.13
-0.66,0.33,-0.84,-14.77,-2.31,-11.27
-0.65,0.35,-0.76,-19.53,-7.28,-12.04
-0.65,0.34,-0.7,-19.11,-7.14,-12.67
-0.62,0.37,-0.65,-21.84,-3.92,-11.83
-0.64,0.36,-0.61,-21.28,-3.92,-10.85
-0.61,0.35,-0.53,-23.1,-1.68,-4.13
-0.55,0.46,-0.57,-26.18,4.69,10.29
-0.65,0.28,-0.72,-16.03,-8.54,6.44
-0.66,0.29,-0.59,-1.68,-5.25,8.05
-0.68,0.37,-0.61,-6.86,-3.01,8.61
-0.7,0.26,-0.59,2.94,0.7,5.81
-0.66,0.31,-0.63,4.76,4.48,3.71
-0.61,0.31,-0.64,9.31,2.31,0.91
-0.62,0.33,-0.63,13.37,7,-7.91
-0.59,0.37,-0.74,11.9,2.87,-11.13
-0.63,0.3,-0.79,15.54,-2.1,-12.6
-0.67,0.3,-0.75,4.2,3.92,-7.84
-0.64,0.31,-0.73,4.9,6.51,-3.15
-0.68,0.39,-0.66,-3.78,0.42,-2.52
-0.66,0.38,-0.54,-5.6,0.28,1.12
-0.66,0.4,-0.61,-12.46,-4.13,14.56
-0.65,0.34,-0.62,-7.56,4.76,12.25
-0.7,0.31,-0.69,4.97,7.56,9.38
-0.66,0.29,-0.65,10.01,7.91,9.66
-0.67,0.25,-0.63,21.63,7.98,4.62
-0.67,0.27,-0.65,24.29,12.18,2.73
-0.66,0.29,-0.64,26.11,10.99,-0.35
-0.66,0.31,-0.65,23.8,13.51,-3.92
-0.67,0.31,-0.67,21.14,15.75,-5.53
-0.63,0.27,-0.69,23.73,14.91,-8.19
-0.66,0.34,-0.75,18.76,11.83,-11.76
-0.64,0.33,-0.72,15.4,8.75,-14.56
-0.62,0.32,-0.74,14.7,10.71,-17.99
-0.61,0.34,-0.78,9.38,12.46,-26.95
-0.59,0.31,-0.59,7.14,15.61,-31.57
-0.75,0.37,-0.77,11.83,10.99,-28.35
-0.56,0.33,-0.68,2.45,9.17,-31.08
-0.61,0.38,-0.56,8.33,1.4,-36.82
-0.7,0.35,-0.69,12.88,-3.71,-38.64
-0.59,0.37,-0.67,5.04,-1.05,-39.41
-0.58,0.27,-0.58,18.97,-7.35,-43.19
-0.63,0.18,-0.88,17.64,10.5,-47.95
-0.71,0.26,-0.8,11.62,12.18,-51.24
-0.64,0.15,-0.7,14.98,24.78,-48.02
-0.69,0.19,-0.84,9.24,25.41,-51.8
-0.74,0.19,-0.73,8.33,28.49,-52.01
-0.84,0.2,-0.69,7.35,19.53,-48.58
-0.76,0.14,-0.63,10.57,14.84,-42.7
-0.64,0.32,-0.67,8.4,5.53,-32.62
-0.58,0.37,-0.61,4.48,7.98,-26.32
-0.55,0.45,-0.65,-4.62,12.18,-21.49
-0.58,0.48,-0.71,-25.9,7.91,-27.93
-0.55,0.26,-0.82,-19.95,-0.84,-15.05
-0.55,0.34,-0.81,-19.32,-8.96,-12.11
-0.6,0.27,-0.76,-17.43,-15.05,-13.3
-0.71,0.31,-0.8,-16.38,-16.24,-14.07
-0.7,0.29,-0.72,-16.03,-20.93,-19.11
-0.72,0.18,-0.76,-10.22,-26.39,-15.33
-0.69,0.24,-0.66,-14.98,-32.2,-11.06
-0.7,0.17,-0.68,-13.72,-33.18,-8.05
-0.73,-0.52,-0.69,22.47,-46.55,-30.17
-0.39,0.43,-0.56,4.2,-40.88,-20.23
-0.52,0.04,-0.59,54.95,-70.77,-29.82
-0.44,0.06,-0.78,118.16,-113.89,-50.96
-0.51,0.13,-0.8,147.7,-143.29,-79.52
-0.41,0.47,-0.72,90.44,-114.8,-76.51
-0.89,0.14,-0.25,-7.63,-64.89,-51.87
-0.74,0.25,-0.9,-9.8,-107.73,-47.67
-0.72,-0.08,-0.59,-39.34,-94.15,-49.84
-0.56,0.09,-0.73,-45.92,-122.64,-89.88
-0.69,0.07,-0.68,-10.5,-122.78,-135.38
-0.9,0.01,-0.46,-108.36,-99.75,-87.01
-1.04,0.1,-0.83,-91.42,-87.57,-84.49
-0.79,0.12,-0.69,-93.1,-91.7,-68.53
-0.91,0.21,-0.65,-87.78,-81.69,-57.12
-0.87,0.21,-0.54,-73.22,-69.79,-42.63
-0.91,0.13,-0.52,-52.01,-71.61,-34.09
-0.96,0.14,-0.46,-45.5,-71.12,-32.97
-0.89,0.13,-0.42,-53.34,-72.59,-30.17
-0.96,0.08,-0.43,-33.11,-76.65,-34.58
-0.99,0.04,-0.46,-20.86,-72.45,-39.97
-0.98,0.15,-0.42,-27.09,-70.56,-36.68
-0.96,0.11,-0.4,-15.54,-62.09,-34.02
-0.93,0.16,-0.4,-13.37,-57.19,-25.69
-0.94,0.05,-0.41,-14.42,-49.7,-19.39
-0.91,0.02,-0.4,-1.82,-43.05,-17.36
-0.89,0.06,-0.43,1.89,-38.57,-16.94
-0.87,0.14,-0.44,-2.38,-34.02,-13.86
-0.87,0.16,-0.44,-11.2,-28.21,-7.21
-0.81,0.19,-0.47,15.47,-22.05,-4.76
-0.8,0.09,-0.51,43.19,-15.47,-9.94
-0.61,0.22,-0.63,28,-23.31,-43.68
-0.82,0.06,-0.57,-9.8,-31.71,-81.48
-1.04,0,-0.43,-96.67,-27.37,-114.45
-1.27,-0.05,-0.21,-77.07,0.49,-115.29
-0.93,0.41,-0.66,-59.36,-27.72,-81.13
-0.95,-0.28,0.13,11.83,-7.7,-8.4
-1.08,0.35,-0.39,-33.6,-9.87,-20.16
-1.01,0.06,-0.13,-25.76,-3.99,-10.43
-0.9,-0.16,-0.15,3.85,-2.31,9.52
-0.94,-0.03,-0.3,34.02,3.85,8.05
-0.81,-0.05,-0.46,4.48,4.55,4.48
-0.83,-0.16,-0.51,-0.14,4.9,7
-0.84,-0.12,-0.55,0.63,1.96,5.25
-0.86,-0.1,-0.5,-0.35,1.4,4.69
-0.91,-0.05,-0.4,0,1.12,5.67
-0.96,0,-0.28,0.63,0.28,8.68
-0.97,-0.06,-0.21,16.24,10.71,24.43
-0.96,-0.16,-0.19,51.17,26.95,43.68
-0.9,-0.11,-0.38,75.46,23.03,39.9
-0.91,-0.11,-0.39,77.14,14.77,29.4
-0.9,-0.04,-0.45,64.26,8.75,26.39
-0.85,-0.08,-0.48,56.28,3.29,14.21
-0.88,-0.03,-0.46,41.44,2.17,7.7
-0.83,-0.12,-0.38,-34.23,6.51,35.14
-0.86,0.2,-0.51,-42.28,1.82,14.21
-1.04,0.02,-0.36,-48.65,-7.91,12.88
-0.98,0.15,-0.46,-36.05,-4.55,-3.71
-1.14,0.05,-0.26,-34.16,-18.06,-6.58
-0.81,0.03,-0.41,-54.81,-13.51,12.18
-0.84,-0.03,-0.35,-48.72,-7.28,10.57
-0.81,-0.09,-0.38,-49.07,-2.66,-6.09
-0.95,0.02,-0.47,-44.94,-6.44,-1.75
-1.21,-0.37,-1.58,-12.25,-59.22,28.98
-0.84,0.71,0.19,-26.88,9.87,-0.63
-0.97,0.04,-0.43,5.67,-0.28,17.64
-0.9,0.18,-0.48,-11.48,-0.98,11.9
-0.79,0.01,-0.46,-54.11,-13.72,28.49
-1,0.2,-0.39,-39.2,-13.44,4.69
-0.84,-0.13,-0.26,-41.79,-17.71,16.03
-1.01,0.22,-0.27,-20.86,-13.23,-14.56
-0.84,-0.14,-0.29,-52.15,-19.46,-9.94
-0.97,0.26,-0.28,-29.75,-13.72,-31.99
-0.87,0.04,-0.42,-37.31,-12.39,-32.76
-0.93,0.11,-0.38,-37.45,-12.25,-30.24
-0.85,0.24,-0.43,-41.79,-7.91,-24.99
-1.03,0.17,-0.38,-38.43,-6.44,-12.04
-1.02,0.13,-0.33,-22.54,-2.52,-1.19
-1.01,0.13,-0.24,-17.01,-0.63,4.83
-0.94,-0.01,-0.25,4.06,-1.05,9.52
-0.95,0.06,-0.33,5.32,2.1,7.35
-0.92,0.03,-0.34,8.19,2.59,0
-0.81,0.02,-0.35,0.84,4.06,3.22
-0.95,0.05,-0.37,-17.57,1.05,-8.19
-0.97,0.05,-0.38,0,0.35,-7.42
-0.91,0.12,-0.38,-1.19,-4.13,-12.88
-0.94,0.11,-0.4,2.66,-4.9,-16.31
-0.95,0.2,-0.4,3.78,-4.2,-16.31
-0.98,0.15,-0.35,9.66,-1.4,1.54
-0.95,0.07,-0.3,14.49,11.62,2.31
-0.9,0.1,-0.28,21.7,19.95,3.85
-0.88,0.46,-0.5,55.09,17.99,-6.37
-0.92,0.08,-0.37,-3.71,26.81,28.21
-0.83,0.22,-0.48,1.26,25.13,36.26
-0.83,0.1,-0.45,-19.6,32.27,50.82
-0.86,0.14,-0.43,-15.33,34.86,59.57
-0.88,0.01,-0.44,-18.76,37.52,55.58
-0.97,-0.03,-0.39,-16.31,34.37,38.92
-0.96,-0.01,-0.36,-23.38,32.34,22.12
-1.02,-0.12,-0.34,-25.27,27.09,1.61
-1.01,0.04,-0.37,-32.97,15.26,0.98
-0.93,0,-0.41,-20.37,13.72,-3.01
-0.97,0.09,-0.45,-17.5,5.95,1.26
-0.95,0.07,-0.43,-11.62,1.26,7.07
-0.91,0.03,-0.43,-2.8,2.24,6.86
-0.84,0.11,-0.44,-6.72,15.54,9.45
-0.79,0.15,-0.43,-16.73,31.85,4.83
-0.86,0.18,-0.49,-21.91,42.49,4.2
-0.86,0.11,-0.44,-25.48,46.34,4.13
-1.02,0.23,-0.46,-44.45,39.83,11.41
-0.97,0,-0.45,-29.47,29.61,24.92
-0.93,-0.05,-0.45,5.46,28.42,27.58
-0.93,-0.05,-0.45,12.67,36.33,19.95
-0.93,-0.05,-0.47,18.34,28.42,12.53
-0.93,0.1,-0.42,22.96,14.77,8.61
-0.83,0.25,-0.45,10.5,34.16,17.29
-0.78,0.28,-0.52,13.44,31.78,28.07
-0.83,0.24,-0.46,25.13,7.28,38.5
-0.76,0.2,-0.5,32.69,1.82,34.93
-0.83,0.15,-0.52,28.35,-1.26,29.33
-0.85,0.12,-0.49,28.28,-6.09,16.31
-0.86,0.07,-0.47,32.9,-10.99,2.94
-0.89,-0.02,-0.41,37.87,-16.52,-4.69
-0.87,0.1,-0.47,42,-23.94,-10.5
-0.82,0.31,-0.47,19.95,-23.87,-16.03
-0.62,0.55,-0.48,-8.4,-3.22,-34.86
-0.27,0.88,-0.42,-54.18,44.24,-79.87
0.11,-0.07,-0.66,-48.3,61.25,-42.14
-0.51,-0.09,-0.48,-10.64,51.66,-29.12
-1.69,-0.03,-0.65,12.74,15.19,-56.49
-1.38,0.02,-0.78,-12.11,-9.52,-70.14
-0.86,0.14,-0.56,-33.81,-12.32,-75.67
-0.73,0.14,-0.45,-30.66,-11.13,-67.13
-0.76,-0.09,-0.45,-17.5,-15.82,-42.56
-0.77,-0.04,-0.5,-11.55,-23.52,-20.37
-0.74,0.19,-0.56,-18.48,-25.2,-26.6
-0.83,0.25,-0.6,-27.58,-24.78,-31.71
-0.81,0.17,-0.6,-17.29,-23.24,-32.48
-0.87,0.16,-0.52,9.52,-47.39,-32.2
-0.79,-0.01,-0.46,-10.5,-31.22,-44.52
-0.33,0.21,-0.36,-37.73,2.24,-59.71
-0.61,-0.2,-0.49,-27.44,3.5,-69.65
-1.04,0.11,-0.42,22.54,-18.62,-97.65
-0.88,0.02,-0.43,12.39,-28.21,-100.87
-1.16,0.05,-0.52,-4.41,-19.81,-89.67
-0.88,0.09,-0.44,-5.95,-11.34,-80.08
-0.91,0.04,-0.42,12.18,-15.82,-78.61
-0.87,-0.08,-0.55,28.28,-25.13,-59.29
-0.85,-0.11,-0.57,-4.27,-17.01,-45.29
-0.89,-0.05,-0.49,-13.79,-23.38,-48.51
-0.83,-0.1,-0.54,-18.62,-49.42,-46.83
-0.74,-0.16,-0.46,3.29,-83.44,-44.59
-0.86,-0.35,-0.73,112.07,-170.66,-30.8
-1.53,-0.23,-0.24,237.79,-202.93,61.32
-1.13,0.49,-0.45,43.05,-133.7,-34.23
-0.86,-0.36,0.09,-8.68,13.58,-49.56
-0.79,-0.05,-0.56,10.15,-33.81,-72.59
-0.82,-0.14,-0.22,28.07,-0.98,-75.11
-0.95,-0.25,-0.47,23.87,-11.34,-71.4
-1,-0.22,-0.47,3.22,-30.66,-58.17
-0.95,-0.07,-0.41,-4.06,-28.77,-53.55
-1.05,-0.03,-0.39,-11.69,-15.05,-38.15
-0.97,0,-0.35,-7.7,-12.18,-31.43
-1.02,-0.1,-0.33,-4.27,-11.55,-21.91
-0.98,-0.22,-0.3,-1.33,-8.19,-11.83
-0.98,-0.28,-0.27,4.62,-9.1,-8.96
-0.98,-0.34,-0.35,11.62,-9.87,-11.2
-1.01,-0.37,-0.37,16.24,-19.6,-23.52
-0.99,-0.31,-0.23,13.79,-20.79,-24.78
-0.95,0.07,-0.35,8.19,-13.58,-38.85
-0.86,0.1,-0.33,13.93,1.96,-52.85
-0.85,0.15,-0.26,24.01,29.4,-80.36
-0.79,0.12,-0.5,42.63,28,-76.23
-0.77,-0.08,-0.41,20.51,21.98,-49.98
-0.95,-0.05,-0.47,83.93,19.74,-88.55
-0.73,-0.69,-0.1,34.72,26.11,-20.93
-1,-0.47,-0.47,18.41,32.2,-22.26
-0.93,-0.36,-0.45,11.83,17.92,-34.09
-0.93,-0.1,-0.36,30.03,-17.64,-58.31
-0.94,-0.24,-0.4,10.5,-21.07,-54.46
-1.02,-0.19,-0.37,17.5,-27.37,-43.61
-1,-0.32,-0.33,14.28,-27.02,-30.17
-0.95,-0.27,-0.28,0.84,-25.06,-15.47
-0.87,-0.42,-0.27,9.59,-19.39,-7.91
-0.86,-0.4,-0.26,15.82,-14.07,-4.27
-0.84,-0.4,-0.27,20.86,-10.15,-5.53
-0.88,-0.35,-0.31,9.87,-17.22,6.72
-0.91,-0.38,-0.3,17.29,-17.22,9.66
-0.94,-0.3,-0.27,17.99,-11.69,5.46
-0.91,-0.18,-0.21,1.89,-4.9,-1.96
-0.98,-0.21,-0.3,1.4,-10.99,-2.24
-0.87,-0.24,-0.41,-2.52,-6.51,-0.91
-0.83,-0.27,-0.44,-13.86,-1.82,-4.9
-0.87,-0.24,-0.39,-8.82,-13.09,1.05
-0.89,-0.24,-0.32,-3.5,-18.13,4.41
-0.89,-0.2,-0.23,-10.78,-8.61,-3.01
-0.95,-0.35,-0.21,-14.63,-10.57,-2.59
-0.83,-0.25,-0.14,-23.52,10.92,-9.87
-0.68,-0.2,-0.32,-46.13,32.2,-19.95
-0.96,-0.05,-0.39,-104.93,14.7,-12.11
-1.12,-1.2,-0.5,1.96,-5.67,-15.12
-0.88,-0.22,-0.19,-18.48,-15.05,-11.06
-0.65,-0.26,-0.51,-11.9,-1.61,-6.09
-0.79,-0.4,-0.38,-11.62,1.33,-0.56
-0.85,-0.3,-0.27,-20.02,0.35,-3.08
-0.86,-0.21,-0.34,-19.39,0.63,-5.95
-0.9,-0.15,-0.38,-13.16,3.43,-3.99
-1.3,-0.45,-2.01,-14.98,-66.5,2.31
-0.52,-0.5,-0.09,24.15,-150.36,24.22
-0.96,-0.19,-0.36,57.19,-198.45,-2.94
-0.74,-0.24,0.27,33.88,-139.02,-5.32
-0.84,-0.07,0.38,2.8,-22.75,1.68
-0.94,-0.29,-0.23,3.22,3.22,1.96
-0.83,-0.28,-0.1,2.66,14.7,-0.07
-1,-0.28,-0.24,-0.14,13.09,2.17
-0.85,-0.3,-0.27,2.1,13.16,5.74
-0.96,-0.39,-0.42,-0.91,-3.15,9.8
-0.91,-0.28,-0.29,6.58,-30.1,13.23
-0.97,-0.21,-0.19,4.2,-27.65,9.24
-0.98,-0.2,-0.24,5.53,-23.52,8.61
-0.93,-0.21,-0.21,4.27,-19.46,5.18
-0.91,-0.26,-0.19,5.46,-3.64,-0.07
-0.77,-0.26,-0.17,-3.29,10.78,0.14
-0.75,-0.26,-0.2,-7.28,15.96,1.19
-0.67,-0.29,-0.29,-4.06,16.17,-8.61
-0.95,-0.24,-0.38,-11.62,7.14,-31.64
-1.01,0.12,-0.56,-24.71,70.28,-42.35
-0.85,-0.58,-0.02,-29.4,68.18,-21.63
-0.97,-0.41,-0.39,-21.07,32.2,-14.63
-1.1,-0.35,-0.27,-9.31,0.21,-10.5
-1.07,-0.27,-0.2,1.33,-5.53,0.98
-0.96,-0.28,-0.28,0.07,-6.93,0.56
-0.94,-0.33,-0.27,6.3,-7.91,0.35
-0.95,-0.23,-0.22,-0.7,-7.84,-0.7
-0.91,-0.27,-0.26,-0.49,-6.02,-0.98
-0.91,-0.28,-0.28,-1.54,-4.97,-3.64
-0.88,-0.22,-0.28,-8.33,-4.69,-10.78
-0.87,-0.26,-0.31,-14.35,-4.06,-13.3
-0.86,-0.34,-0.32,-13.79,-4.9,-15.4
-0.83,-0.35,-0.27,-10.78,-1.75,-18.48
-0.88,-0.27,-0.34,-15.61,-8.33,-21.91
-0.89,-0.41,-0.36,-6.37,-10.36,-13.23
-0.88,-0.36,-0.29,1.19,-9.59,-10.5
-0.9,-0.36,-0.29,-3.01,-15.12,-8.54
-0.84,-0.32,-0.24,10.57,-18.97,-9.38
-0.79,-0.21,-0.25,-2.45,-20.16,-17.01
-0.71,-0.27,-0.37,-0.49,-15.19,-36.75
-0.78,-0.3,-0.33,17.5,-42.35,-59.43
-1.03,-0.34,-0.24,22.4,-40.67,-70.98
-1.03,-0.49,-0.13,47.74,-50.61,-53.69
-1.07,-0.25,-0.22,21.56,-34.58,-35.98
-1.04,-0.3,-0.3,3.01,-43.68,-16.45
-1.07,-0.43,-0.14,11.62,-45.15,-4.83
-0.85,-0.42,-0.08,20.23,-43.54,-7.07
-0.85,-0.33,-0.16,14.7,-19.95,-7.07
-0.75,-0.41,-0.19,34.93,-18.62,-7.42
-0.79,-0.35,-0.14,39.13,-0.14,-4.62
-0.88,-0.33,-0.07,44.73,4.27,-3.99
-1.09,-0.35,-0.1,36.12,14.56,-5.81
-1.11,-0.28,-0.07,24.85,-1.26,-1.12
-1.01,-0.32,-0.09,20.37,-5.67,-0.84
-1.01,-0.37,-0.12,23.31,-1.68,0.28
-0.94,-0.35,-0.17,26.11,0.7,0.07
-0.93,-0.28,-0.26,20.65,-2.59,-0.42
-0.89,-0.25,-0.28,0.56,-3.01,-2.24
-0.84,-0.31,-0.32,-7.91,-6.72,-5.04
-0.71,-0.34,-0.22,-2.73,-23.38,-8.68
-0.86,-0.4,-0.25,-4.83,-17.78,-11.83
-0.82,-0.42,-0.27,2.03,-14.77,-13.65
-0.71,-0.45,-0.06,23.66,-31.36,-10.22
-0.95,-0.44,-0.09,23.24,-18.2,-14.77
-0.94,-0.41,-0.09,25.83,-8.61,-11.2
-1.13,-0.35,-0.21,12.46,-8.4,-5.81
-1,-0.28,-0.2,1.47,-6.16,-5.95
-0.86,-0.29,-0.2,1.19,-12.18,-7.21
-0.79,0.42,0.27,-14.63,3.92,-42.63
-0.69,-0.92,-0.51,-18.48,-22.33,-12.95
-0.68,-0.67,-0.08,38.43,-29.82,-0.14
-0.91,-0.59,-0.08,47.74,-30.03,-1.33
-1.11,-0.51,-0.12,41.44,-22.68,-10.64
-1.14,-0.5,-0.1,32.62,-11.83,-5.74
-1.07,-0.41,-0.01,38.36,-3.78,-5.11
-1.03,-0.35,-0.07,26.25,-4.13,-3.15
-0.81,-0.39,-0.07,33.32,-4.55,-4.13
-1.06,-0.32,-0.21,13.09,-3.01,-7
-1.05,-0.41,-0.09,13.44,6.44,0.49
-0.64,-0.51,-0.16,42.21,7.7,8.4
-0.78,-0.4,-0.38,38.78,-5.32,5.53
-0.92,-0.48,-0.04,38.78,-3.29,2.45
-0.96,-0.58,-0.12,43.96,-2.45,-1.12
-0.97,-0.4,-0.03,43.47,-3.5,-3.5
-1.02,-0.03,0.03,21.42,-6.23,-6.86
-0.95,-0.28,-0.1,15.12,-5.46,-10.08
-0.88,-0.25,-0.12,9.38,-0.84,-10.43
-0.77,-0.4,-0.19,16.73,1.75,-4.97
-0.74,-0.44,-0.18,29.19,-1.4,-4.13
-0.82,-0.46,-0.11,43.05,-11.34,-1.75
-0.87,-0.5,-0.11,40.95,-9.52,6.09
-0.9,-0.43,-0.03,44.45,-3.22,5.18
-1.01,-0.52,-0.12,34.3,1.75,6.72
-0.95,-0.43,-0.05,37.38,0.49,3.43
-0.82,-0.3,-0.01,36.75,-4.62,4.48
-0.9,-0.43,-0.04,34.72,-8.61,8.61
-0.99,-0.42,-0.03,31.29,-8.82,7.42
-1.05,-0.38,-0.07,11.97,-10.57,3.29
-1.01,-0.36,-0.1,2.87,-12.04,2.66
-0.96,-0.39,-0.1,-1.61,-7,2.38
-0.91,-0.41,-0.1,-5.67,-5.67,3.08
-0.93,-0.4,-0.11,-4.48,-10.15,0.56
-0.91,-0.39,-0.09,-5.18,-9.1,-0.35
-0.88,-0.38,-0.04,-6.23,-4.83,-2.87
-0.9,-0.41,-0.01,-7.98,-1.68,-4.9
-0.97,-0.41,-0.08,-12.81,-1.26,-6.16
-1,-0.4,-0.09,-12.46,-2.8,-6.3
-0.97,-0.42,-0.06,-13.37,-3.22,-3.78
-0.95,-0.46,-0.07,-4.62,-5.25,-1.05
-0.92,-0.5,-0.07,5.32,-9.24,0.7
-0.91,-0.48,-0.07,10.78,-10.57,1.12
-0.9,-0.46,-0.08,13.86,-10.57,2.73
-0.88,-0.45,-0.08,16.45,-7.98,3.22
-0.93,-0.42,-0.07,19.74,-10.29,3.36
-0.95,-0.4,-0.07,20.93,-12.04,2.73
-0.91,-0.39,-0.06,19.46,-10.71,2.66
-0.89,-0.4,-0.09,20.3,-9.8,4.34
-0.86,-0.41,-0.11,21.84,-9.17,5.25
-0.88,-0.4,-0.09,21.56,-7.7,4.27
-0.92,-0.37,-0.07,18.69,-8.33,3.57
-0.94,-0.34,-0.06,12.18,-9.1,2.8
-0.93,-0.33,-0.03,5.32,-7.7,2.52
-0.88,-0.33,-0.02,-2.45,-0.91,1.26
-0.87,-0.17,-0.1,-13.58,0.77,-4.41
-0.96,-0.28,-0.13,-43.19,9.8,0.77
-0.9,-0.25,-0.14,-46.2,9.24,-0.56
-0.89,-0.18,-0.16,-77.98,12.11,1.75
-0.99,-0.16,-0.19,-101.29,1.82,-9.66
-0.98,-0.63,-0.1,-84.98,-11.41,-0.56
-0.96,-0.57,0.08,-53.55,-2.8,-8.54
-0.93,-0.52,-0.01,-41.58,-10.85,-5.74
-0.88,-0.53,-0.03,-22.68,-9.52,-1.54
-0.9,-0.5,-0.13,-7.63,-11.27,-0.14
-0.93,-0.45,-0.17,-3.36,-15.61,0.77
-0.91,-0.45,-0.16,1.82,-17.85,0.77
-0.86,-0.43,-0.12,4.55,-19.32,1.47
-0.76,-0.49,-0.14,5.74,-27.44,7.63
-0.77,-0.44,-0.04,-0.56,-25.55,5.11
-0.66,-0.4,-0.09,-7.98,-26.95,1.26
-0.58,-0.37,-0.08,-1.82,-38.92,-2.1
-0.8,-0.37,0.11,-3.78,-37.59,-2.03
-1.03,-0.64,0.08,3.71,-29.26,-11.62
-1.01,-0.37,0.03,13.79,-24.92,-11.2
-1.06,-0.47,0.03,7.35,-14.77,-5.53
-0.93,-0.43,-0.08,8.26,-18.13,-5.04
-1.07,-0.41,-0.04,-7.98,-9.31,-6.3
-0.95,-0.42,-0.01,-8.47,-8.82,-5.81
-0.91,-0.41,0.03,-6.44,-5.6,-5.18
-0.92,-0.49,0.03,3.64,-0.84,-3.43
-0.93,-0.46,0.06,8.12,7.49,-3.22
-0.86,-0.44,0.02,8.54,14.14,-2.45
-0.84,-0.36,0,4.83,16.1,-4.48
-0.87,-0.37,-0.03,9.94,7.91,-9.73
-1,-0.43,-0.23,8.47,0.7,-7.7
-1.05,-0.36,-0.1,1.47,-3.08,-6.3
-1.02,-0.42,-0.05,3.99,-0.7,-2.87
-0.98,-0.39,-0.04,7.35,-1.05,-1.19
-0.98,-0.38,-0.01,8.19,-2.17,-1.19
-0.97,-0.46,-0.02,15.61,-3.57,-1.05
-0.96,-0.44,-0.03,19.25,-9.73,-0.98
-0.92,-0.5,-0.03,25.76,-10.85,1.68
-0.94,-0.5,0,34.23,-10.01,5.53
-1,-0.55,0.01,50.96,-16.59,10.36
-1.07,-0.53,0,67.48,-27.72,17.01
-1.16,-0.53,0.01,113.89,-43.68,24.43
-1.1,-0.25,0.02,113.82,-35,38.15
-1.1,-0.26,-0.02,111.72,-32.69,52.29
-0.73,0.08,-0.28,53.62,-23.73,34.37
-0.42,-0.01,-0.13,3.43,8.54,-5.81
-0.3,-0.09,0.06,-39.48,53.97,-30.03
-0.36,-0.06,0,-101.36,91.56,-55.37
-0.58,-0.09,0.02,-185.78,120.05,-63.14
-1.03,-0.46,-0.32,-162.68,98,-66.29
-1.54,-0.8,-0.37,-86.66,14.42,-39.69
-1.32,-0.89,-0.16,-48.65,-6.16,-20.72
-1.05,-0.68,0,-0.21,1.4,-12.11
-0.8,-0.56,0.02,0.42,5.46,-6.58
-0.8,-0.62,-0.02,2.17,4.41,-0.21
-0.87,-0.56,-0.09,1.19,-0.42,-0.07
-0.89,-0.47,-0.11,-3.15,-4.06,-0.42
-0.88,-0.43,-0.1,-2.66,-1.61,0.21
-0.9,-0.43,-0.08,1.4,-1.4,1.12
-0.89,-0.43,-0.08,2.66,-0.98,0.63
-0.88,-0.43,-0.09,2.24,-0.42,-0.35
-0.89,-0.43,-0.09,1.26,-0.21,-1.12
-0.89,-0.42,-0.06,0.14,0.84,-2.24
-0.89,-0.47,-0.1,-0.42,5.39,-0.14
-0.92,-0.47,-0.12,1.89,0.91,0.07
-0.9,-0.44,-0.13,2.38,-0.63,-0.14
-0.9,-0.42,-0.1,2.38,-0.91,-0.28
-0.9,-0.41,-0.07,1.75,-0.98,0.14
-0.92,-0.42,-0.07,3.08,-1.89,-0.42
-0.91,-0.41,-0.07,3.01,-2.52,-0.49
-0.93,-0.41,-0.11,2.8,-5.25,-0.07
-0.91,-0.37,-0.08,2.45,-2.24,-0.7
-0.92,-0.41,-0.08,1.96,-2.94,0.21
-0.92,-0.4,-0.08,2.59,-3.78,0.14
-0.92,-0.4,-0.1,2.1,-3.57,0.21
-0.92,-0.41,-0.1,2.73,-4.41,0.84
-0.9,-0.41,-0.09,3.01,-4.27,1.47
-0.91,-0.41,-0.08,3.29,-4.48,1.61
-0.94,-0.43,-0.19,4.83,-10.36,2.8
-0.92,-0.38,-0.2,16.59,-35.77,9.03
-0.86,-0.38,0,7.14,-10.99,6.51
-0.95,-0.4,-0.03,8.68,-13.93,7.14
-0.97,-0.4,-0.06,11.06,-18.97,6.58
-0.94,-0.42,-0.1,13.02,-20.58,7.91
-0.98,-0.38,-0.18,10.99,-28.84,6.02
-0.94,-0.44,-0.13,6.37,-33.67,9.59
-0.94,-0.42,-0.1,5.95,-37.59,10.99
-0.89,-0.41,-0.01,0,-35.49,11.55
-0.82,-0.41,-0.01,-0.56,-32.83,10.22
-0.78,-0.43,-0.07,-4.76,-28.63,9.45
-0.95,-0.42,-0.07,0,-30.45,6.72
-0.86,-0.36,0.06,1.26,-17.29,6.09
-0.91,-0.37,0.07,3.64,-11.55,4.48
-0.93,-0.38,0.03,4.2,-10.5,2.66
-0.94,-0.41,0,5.32,-9.59,2.66
-0.9,-0.43,0.01,7.42,-5.53,3.22
-0.9,-0.44,0.01,7.7,-3.15,4.13
-0.9,-0.45,0,7.49,-1.96,4.13
-0.91,-0.43,-0.01,8.26,-2.03,3.85
-0.92,-0.41,-0.01,8.47,-1.89,3.57
-0.92,-0.39,-0.01,7.98,-1.96,2.59
-0.91,-0.37,-0.01,6.16,-1.19,1.05
-0.91,-0.38,-0.01,4.83,-0.98,0.14
-0.9,-0.39,-0.02,4.83,-0.7,0.14
-0.9,-0.42,-0.05,5.88,-1.47,1.26
-0.91,-0.42,-0.05,7.28,-2.03,2.31
-0.92,-0.41,-0.04,8.05,-2.59,2.8
-0.94,-0.4,-0.03,9.03,-3.85,3.29
-0.95,-0.39,-0.01,9.38,-5.53,3.01
-0.92,-0.38,0.02,8.4,-3.15,2.38
-0.94,-0.39,0.02,6.09,-1.89,1.4
-0.93,-0.4,0.02,5.32,-1.68,1.4
-0.91,-0.4,0.01,5.25,-0.21,1.61
-0.9,-0.4,-0.01,5.53,0.28,1.68
-0.91,-0.4,-0.03,5.95,-0.28,1.96
-0.92,-0.4,-0.04,7,-1.05,2.73
-0.92,-0.38,-0.03,7.91,-1.19,2.8
-0.92,-0.37,-0.03,7.49,0.21,3.01
-0.94,-0.36,-0.01,6.58,0.77,2.17
-0.95,-0.36,-0.01,4.69,0.56,1.19
-0.95,-0.36,0,2.31,-4.34,1.82
-0.96,-0.4,-0.03,5.46,-2.8,0.56
-0.91,-0.38,-0.02,4.41,0.42,1.47
-0.9,-0.39,0,1.12,0.84,0.84
-0.95,-0.41,-0.03,2.8,-3.22,1.33
-0.94,-0.4,-0.05,3.99,-7.42,2.24
-0.93,-0.39,-0.06,4.48,-8.4,2.8
-0.92,-0.4,-0.06,4.69,-8.61,2.94
-0.92,-0.4,-0.05,5.53,-9.59,3.71
-0.93,-0.41,-0.04,6.79,-11.55,4.55
-0.89,-0.41,-0.01,7.63,-10.71,5.67
-0.89,-0.42,0,7.77,-9.66,6.65
-0.9,-0.41,0,7.35,-8.4,7.14
-0.9,-0.4,0.01,6.93,-7.7,7.42
-0.88,-0.39,0.01,8.12,-5.74,7.42
-0.9,-0.38,0.01,8.82,-4.06,7.35
-0.9,-0.38,0.01,8.68,-2.94,7.07
-0.89,-0.37,0.01,5.6,-0.91,6.86
-0.91,-0.37,0,3.64,0.63,5.95
-0.93,-0.36,-0.01,2.38,0.91,4.9
-0.93,-0.36,0,1.82,0.84,3.92
-0.93,-0.35,0,0.98,0.49,2.52
-0.93,-0.35,0,-0.28,0.56,0.49
-0.95,-0.37,-0.01,0.91,-1.26,0.7
-0.94,-0.36,0.01,0.84,-1.96,0.63
-0.91,-0.37,0.01,0.42,17.71,0.84
-0.92,-0.37,0.01,-0.35,2.45,2.1
-0.94,-0.41,0.01,1.12,3.08,3.85
-0.92,-0.42,0.01,3.29,5.25,6.3
-0.93,-0.41,0.01,4.83,7.77,7.35
-0.94,-0.39,0.01,6.37,8.89,8.47
-0.86,-0.37,-0.02,7.35,8.68,8.4
-0.9,-0.42,-0.15,-2.17,-2.38,-1.54
-0.89,-0.42,-0.16,-2.17,-2.38,-1.68
-0.89,-0.42,-0.16,-2.24,-2.38,-1.68
-0.89,-0.42,-0.15,-2.24,-2.38,-1.82
-0.89,-0.42,-0.15,-2.17,-2.45,-1.68
-0.89,-0.42,-0.15,-2.17,-2.66,-1.54
-0.89,-0.41,-0.15,-2.24,-2.59,-1.54
-0.9,-0.41,-0.15,-1.96,-2.73,-1.33
-0.9,-0.4,-0.15,-1.89,-2.73,-1.05
-0.9,-0.4,-0.15,-1.68,-2.59,-0.56
-0.9,-0.4,-0.15,-1.89,-2.59,-0.42
-0.91,-0.4,-0.15,-1.89,-2.94,-0.07
-0.91,-0.4,-0.14,-1.82,-3.01,0.35
-0.91,-0.4,-0.14,-2.17,-2.94,0.07
-0.91,-0.4,-0.15,-2.45,-3.01,0
-0.91,-0.41,-0.15,-2.8,-3.15,-0.28
-0.9,-0.42,-0.15,-3.01,-3.15,-0.63
-0.9,-0.42,-0.16,-2.38,-3.36,-0.98
-0.89,-0.42,-0.16,-2.45,-3.22,-1.47
-0.89,-0.43,-0.16,-2.31,-3.29,-1.61
-0.88,-0.42,-0.15,-2.45,-2.8,-1.75
-0.89,-0.42,-0.15,-2.1,-2.73,-1.68
-0.9,-0.42,-0.15,-1.89,-2.52,-1.47
-0.9,-0.41,-0.14,-1.47,-2.66,-1.54
-0.91,-0.41,-0.14,-1.4,-2.52,-1.33
-0.91,-0.41,-0.14,-1.33,-2.45,-1.33
-0.91,-0.41,-0.15,-1.05,-2.45,-1.19
-0.91,-0.41,-0.15,-0.84,-2.59,-0.77
-0.9,-0.41,-0.15,-0.14,-2.45,-0.77
-0.9,-0.41,-0.15,0.14,-2.31,-0.56
-0.9,-0.41,-0.16,0.42,-2.52,-0.28
-0.9,-0.41,-0.15,-0.28,-2.31,-0.21
-0.9,-0.4,-0.14,-0.56,-2.24,-0.14
-0.91,-0.4,-0.15,-0.07,-2.73,0.28
-0.91,-0.4,-0.15,0,-2.87,0.77
-0.91,-0.4,-0.15,-0.28,-2.87,0.98
-0.91,-0.39,-0.14,-0.21,-3.08,1.61
-0.91,-0.39,-0.15,-0.14,-3.22,2.17
-0.91,-0.4,-0.15,0.07,-3.15,2.24
-0.91,-0.41,-0.15,0,-3.15,1.82
-0.91,-0.41,-0.15,0.56,-3.01,1.54
-0.9,-0.42,-0.15,0.63,-2.94,1.19
-0.89,-0.42,-0.15,1.19,-2.59,0.42
-0.88,-0.43,-0.16,0.77,-2.45,-0.21
-0.87,-0.44,-0.17,0.07,-2.45,-0.84
-0.88,-0.43,-0.16,-0.42,-2.31,-1.54
-0.89,-0.43,-0.15,0.56,-2.52,-1.47
-0.89,-0.42,-0.15,0.7,-2.17,-1.4
-0.9,-0.42,-0.15,1.05,-1.96,-1.4
-0.9,-0.42,-0.14,1.05,-2.03,-0.98
-0.9,-0.41,-0.14,1.12,-2.17,-0.7
-0.9,-0.41,-0.14,1.05,-1.96,-0.56
-0.9,-0.41,-0.15,1.26,-1.96,-0.21
-0.9,-0.41,-0.16,1.19,-1.96,-0.21
-0.9,-0.41,-0.15,1.19,-1.96,-0.14
-0.9,-0.42,-0.16,1.54,-2.17,-0.42
-0.89,-0.42,-0.16,1.68,-1.96,-1.12
-0.89,-0.42,-0.16,2.1,-1.75,-1.4
-0.89,-0.42,-0.16,1.89,-1.54,-1.75
-0.89,-0.41,-0.15,1.82,-1.75,-1.68
-0.89,-0.41,-0.15,1.68,-1.82,-1.68
-0.9,-0.4,-0.14,1.54,-1.96,-1.47
-0.91,-0.4,-0.14,1.68,-1.89,-1.19
-0.91,-0.39,-0.14,1.61,-1.96,-0.56
-0.92,-0.39,-0.14,1.47,-2.03,-0.35
-0.92,-0.39,-0.14,1.47,-2.24,0
-0.92,-0.39,-0.14,1.12,-2.52,0.21
-0.91,-0.39,-0.15,1.19,-2.73,0.21
-0.91,-0.39,-0.15,1.05,-2.73,-0.07
-0.91,-0.39,-0.15,1.26,-2.73,-0.7
-0.9,-0.39,-0.15,1.05,-2.73,-1.05
-0.9,-0.4,-0.16,0.7,-2.8,-1.47
-0.9,-0.4,-0.15,0.14,-2.94,-1.89
-0.9,-0.41,-0.15,0.21,-3.01,-2.03
-0.9,-0.41,-0.15,-0.28,-3.08,-2.31
-0.9,-0.41,-0.15,-0.56,-3.22,-2.31
-0.9,-0.41,-0.14,-0.91,-3.15,-2.31
-0.91,-0.41,-0.14,-0.56,-3.43,-1.54
-0.91,-0.42,-0.14,-0.63,-3.36,-1.75
-0.91,-0.41,-0.14,-0.7,-3.22,-1.54
-0.9,-0.41,-0.14,-0.49,-3.22,-1.82
-0.9,-0.41,-0.15,0.35,-3.15,-1.75
-0.89,-0.42,-0.15,0.56,-2.73,-1.96
-0.89,-0.41,-0.15,0.49,-2.73,-2.17
-0.9,-0.41,-0.15,0.77,-2.73,-2.17
-0.9,-0.41,-0.15,0.63,-2.59,-1.96
-0.9,-0.41,-0.15,0.7,-2.66,-1.82
-0.9,-0.41,-0.14,0.7,-2.87,-1.61
-0.9,-0.41,-0.14,0.49,-2.73,-1.4
-0.9,-0.41,-0.14,-0.14,-2.73,-1.54
-0.9,-0.41,-0.14,0.28,-3.01,-1.33
-0.9,-0.42,-0.14,0.42,-3.08,-1.33
-0.9,-0.42,-0.15,0.42,-3.01,-1.75
-0.9,-0.42,-0.15,0.42,-2.87,-1.68
-0.89,-0.42,-0.15,0.77,-2.59,-1.96
-0.89,-0.42,-0.14,0.63,-2.38,-2.03
-0.88,-0.42,-0.14,0.91,-2.1,-2.03
-0.89,-0.42,-0.15,0.98,-2.38,-2.03
-0.89,-0.42,-0.14,0.84,-2.24,-1.68
-0.9,-0.41,-0.14,0.63,-2.1,-1.4
-0.91,-0.41,-0.13,0.56,-2.38,-1.19
-0.91,-0.41,-0.14,0.49,-2.66,-0.98
-0.91,-0.41,-0.14,0.07,-2.59,-1.05
-0.91,-0.41,-0.14,0.07,-2.87,-0.98
-0.9,-0.42,-0.14,0.21,-2.73,-1.05
-0.89,-0.43,-0.14,0.14,-2.52,-0.98
-0.89,-0.43,-0.15,0.21,-2.52,-0.91
-0.89,-0.43,-0.15,0.42,-2.31,-0.91
-0.88,-0.43,-0.15,0.63,-2.17,-0.84
-0.89,-0.42,-0.15,1.19,-1.96,-0.56
-0.89,-0.42,-0.14,1.82,-2.03,-0.35
-0.9,-0.42,-0.14,1.68,-1.61,-0.35
-0.9,-0.41,-0.14,1.75,-1.54,-0.21
-0.9,-0.41,-0.14,1.4,-1.47,-0.28
-0.9,-0.42,-0.14,1.4,-1.47,-0.21
-0.9,-0.41,-0.14,0.91,-1.4,-0.35
-0.9,-0.42,-0.15,0.98,-1.75,-0.98
-0.9,-0.42,-0.14,1.19,-2.03,-1.26
-0.9,-0.41,-0.15,0.56,-2.24,-1.33
-0.89,-0.41,-0.15,0.35,-2.38,-1.26
-0.89,-0.42,-0.14,0.28,-2.45,-1.54
-0.89,-0.42,-0.15,0.21,-2.38,-1.54
-0.9,-0.42,-0.15,-0.35,-2.45,-1.19
-0.9,-0.41,-0.14,-0.49,-2.31,-1.19
-0.9,-0.4,-0.14,-0.07,-2.31,-0.42
-0.91,-0.4,-0.14,-0.07,-2.24,-0.77
-0.91,-0.4,-0.14,0.21,-2.31,-0.56
-0.91,-0.41,-0.14,0.28,-2.38,-0.84
-0.91,-0.41,-0.14,0,-2.52,-0.98
-0.9,-0.41,-0.14,-0.49,-2.73,-1.19
-0.9,-0.42,-0.14,-0.56,-2.73,-1.26
-0.89,-0.42,-0.14,-0.56,-2.8,-1.26
-0.89,-0.42,-0.14,-0.35,-2.59,-1.12
-0.9,-0.42,-0.15,-0.7,-2.66,-1.26
-0.89,-0.42,-0.15,-0.28,-2.52,-1.33
-0.9,-0.42,-0.15,-0.49,-2.31,-1.26
-0.9,-0.42,-0.14,-0.07,-2.31,-1.19
-0.9,-0.41,-0.15,0.07,-2.24,-1.12
-0.9,-0.41,-0.14,0.35,-2.38,-0.84
-0.9,-0.42,-0.14,0.35,-2.1,-0.84
-0.9,-0.41,-0.14,0.7,-2.17,-0.7
-0.9,-0.41,-0.14,0.7,-2.03,-0.63
-0.9,-0.41,-0.14,0.42,-1.96,-0.49
-0.9,-0.41,-0.14,0.42,-1.96,-0.42
-0.9,-0.41,-0.15,0.42,-2.17,-0.21
-0.9,-0.41,-0.14,0.28,-2.17,-0.21
-0.9,-0.41,-0.14,-0.21,-2.24,-0.07
-0.9,-0.41,-0.14,0.07,-2.52,-0.49
-0.9,-0.41,-0.14,-0.28,-2.52,-0.56
-0.9,-0.41,-0.15,0.21,-2.59,-0.91
-0.9,-0.42,-0.14,0.28,-2.59,-1.12
-0.9,-0.42,-0.15,-0.14,-2.66,-1.4
-0.89,-0.42,-0.15,-0.63,-2.66,-1.68
-0.89,-0.41,-0.15,-0.7,-2.73,-1.82
-0.9,-0.41,-0.14,-0.63,-2.87,-1.68
-0.9,-0.42,-0.14,-0.28,-2.8,-1.54
-0.89,-0.42,-0.14,-0.56,-2.66,-1.12
-0.89,-0.42,-0.14,-0.77,-2.24,-1.12
-0.89,-0.42,-0.14,-0.14,-2.17,-1.05
-0.9,-0.42,-0.14,0.21,-2.24,-0.49
-0.9,-0.42,-0.15,0.07,-2.17,-0.56
-0.9,-0.42,-0.15,0.07,-2.03,-0.77
-0.9,-0.42,-0.15,0.35,-2.24,-1.33
-0.9,-0.41,-0.15,0.07,-2.31,-1.4
-0.89,-0.41,-0.15,-0.21,-2.66,-1.4
-0.89,-0.42,-0.15,-0.21,-2.66,-1.4
-0.89,-0.42,-0.14,-0.14,-2.52,-1.4
-0.89,-0.42,-0.14,-0.42,-2.31,-1.47
-0.9,-0.42,-0.14,-0.21,-2.31,-1.05
-0.9,-0.42,-0.14,0.21,-2.1,-0.49
-0.9,-0.41,-0.14,-0.07,-1.89,-0.7
-0.9,-0.41,-0.14,0.28,-2.03,-0.63
-0.9,-0.41,-0.15,0.28,-2.17,-0.63
-0.9,-0.41,-0.15,-0.42,-2.31,-1.05
-0.9,-0.41,-0.15,-0.14,-2.38,-0.98
-0.9,-0.41,-0.15,0,-2.66,-1.26
-0.9,-0.42,-0.15,-0.14,-2.87,-1.47
-0.9,-0.42,-0.14,-0.42,-2.73,-1.61
-0.9,-0.42,-0.14,-0.84,-2.52,-1.61
-0.9,-0.42,-0.15,-0.77,-2.94,-1.54
-0.89,-0.42,-0.15,-0.98,-2.73,-1.54
-0.9,-0.42,-0.15,-0.91,-2.38,-1.4
-0.9,-0.42,-0.14,-0.7,-2.52,-1.19
-0.9,-0.42,-0.14,0.14,-2.52,-0.77
-0.9,-0.42,-0.15,0.35,-2.38,-0.63
-0.9,-0.41,-0.15,0.28,-2.24,-0.77
-0.9,-0.41,-0.15,0.49,-2.31,-0.77
-0.9,-0.41,-0.15,0.56,-2.17,-0.77
-0.9,-0.41,-0.15,0.42,-2.1,-1.05
-0.9,-0.42,-0.15,0.7,-2.45,-0.91
-0.9,-0.41,-0.15,0.14,-2.52,-0.91
-0.9,-0.41,-0.15,0,-2.59,-1.26
-0.9,-0.41,-0.14,-0.21,-2.52,-1.19
-0.9,-0.42,-0.14,-0.49,-2.73,-1.4
-0.9,-0.41,-0.14,-0.91,-3.01,-1.26
-0.9,-0.42,-0.15,-0.63,-3.01,-1.12
-0.89,-0.42,-0.15,-0.77,-2.87,-1.12
-0.9,-0.42,-0.14,-0.56,-2.87,-0.98
-0.89,-0.42,-0.15,0,-2.45,-1.05
-0.89,-0.42,-0.15,0.28,-2.24,-1.05
-0.9,-0.42,-0.15,0.63,-2.1,-0.91
-0.9,-0.42,-0.15,0.56,-2.31,-1.05
-0.9,-0.41,-0.15,0.49,-2.52,-1.05
-0.9,-0.41,-0.15,0.56,-2.52,-0.98
-0.9,-0.42,-0.14,0.63,-2.87,-0.98
-0.89,-0.42,-0.15,0.21,-2.87,-1.05
-0.9,-0.42,-0.14,-0.42,-2.66,-1.05
-0.9,-0.41,-0.14,-0.21,-2.59,-0.7
-0.9,-0.42,-0.14,-0.42,-2.59,-0.84
-0.9,-0.41,-0.15,-0.21,-2.59,-0.91
-0.9,-0.41,-0.15,0,-2.45,-0.91
-0.9,-0.42,-0.15,0.42,-2.59,-1.05
-0.9,-0.42,-0.15,0.14,-2.59,-1.19
-0.89,-0.43,-0.15,0.07,-2.66,-1.26
-0.9,-0.42,-0.15,-0.07,-2.66,-1.4
-0.89,-0.42,-0.14,-0.21,-2.73,-1.26
-0.89,-0.42,-0.15,-0.21,-2.8,-1.4
-0.89,-0.42,-0.15,-0.35,-2.59,-1.19
-0.9,-0.42,-0.14,-0.42,-2.45,-1.47
-0.9,-0.42,-0.14,-0.14,-2.45,-1.19
-0.89,-0.42,-0.15,0.21,-2.45,-1.12
-0.9,-0.41,-0.14,0.42,-2.24,-1.19
-0.9,-0.41,-0.14,0.49,-2.45,-0.98
-0.9,-0.42,-0.14,0.14,-2.52,-1.12
-0.9,-0.42,-0.14,0,-2.59,-0.98
-0.9,-0.41,-0.14,0,-2.8,-0.91
-0.9,-0.42,-0.15,-0.35,-2.59,-1.19
-0.9,-0.42,-0.14,-0.42,-2.73,-1.26
-0.9,-0.41,-0.14,0,-2.73,-1.26
-0.9,-0.41,-0.14,-0.07,-2.66,-1.33
-0.89,-0.41,-0.15,-0.77,-2.59,-1.47
-0.9,-0.41,-0.14,-0.84,-2.8,-1.68
-0.89,-0.41,-0.14,-0.63,-3.01,-1.47
-0.9,-0.42,-0.15,-0.77,-3.08,-1.54
-0.9,-0.41,-0.15,-1.05,-3.01,-1.54
-0.9,-0.42,-0.15,-1.19,-3.08,-1.4
-0.9,-0.42,-0.14,-1.26,-3.08,-1.61
-0.9,-0.42,-0.14,-1.47,-2.94,-1.68
-0.9,-0.42,-0.14,-1.19,-3.01,-1.96
-0.89,-0.42,-0.14,-1.33,-3.01,-2.03
-0.89,-0.42,-0.15,-1.47,-3.01,-2.17
-0.89,-0.42,-0.15,-1.4,-3.01,-2.17
-0.89,-0.42,-0.15,-1.47,-2.94,-2.45
-0.89,-0.42,-0.15,-1.12,-2.94,-2.1
-0.9,-0.41,-0.15,-1.54,-3.01,-2.17
-0.9,-0.4,-0.15,-2.87,-3.71,-1.26
-0.91,-0.42,-0.15,-1.68,-3.29,-2.1
-0.9,-0.41,-0.15,-1.47,-3.36,-2.03
-0.9,-0.42,-0.15,-1.4,-3.36,-2.03
-0.9,-0.41,-0.14,-1.4,-3.43,-2.1
-0.89,-0.42,-0.15,-1.26,-3.57,-1.89
-0.9,-0.42,-0.15,-1.68,-3.5,-1.82
-0.89,-0.42,-0.15,-2.1,-3.71,-1.96
-0.9,-0.42,-0.15,-2.38,-3.71,-2.17
-0.89,-0.42,-0.14,-2.59,-3.57,-2.03
-0.89,-0.42,-0.13,-2.73,-3.64,-1.96
-0.9,-0.42,-0.14,-2.31,-3.78,-1.89
-0.89,-0.42,-0.14,-3.22,-3.5,-2.03
-0.9,-0.43,-0.14,-2.45,-3.92,-2.03
-0.89,-0.43,-0.14,-2.1,-3.78,-2.03
-0.89,-0.44,-0.14,-2.59,-3.57,-2.38
-0.89,-0.43,-0.14,-2.31,-3.36,-2.31
-0.89,-0.43,-0.14,-1.96,-3.29,-2.17
-0.89,-0.43,-0.14,-1.61,-3.08,-2.1
-0.89,-0.43,-0.14,-1.61,-2.87,-2.1
-0.89,-0.43,-0.14,-1.4,-2.87,-2.17
-0.89,-0.43,-0.14,-1.33,-3.08,-2.1
-0.89,-0.43,-0.14,-1.26,-3.01,-1.96
-0.9,-0.43,-0.14,-1.33,-2.8,-1.96
-0.9,-0.42,-0.14,-1.4,-2.73,-1.89
-0.9,-0.42,-0.14,-1.19,-2.59,-1.75
-0.9,-0.42,-0.14,-0.84,-2.59,-1.47
-0.9,-0.42,-0.15,-1.05,-2.73,-1.61
-0.89,-0.42,-0.15,-1.19,-2.66,-1.54
-0.89,-0.42,-0.15,-1.26,-2.8,-1.54
-0.89,-0.43,-0.15,-1.26,-2.73,-1.4
-0.89,-0.43,-0.15,-0.91,-2.94,-1.33
-0.89,-0.43,-0.15,-1.61,-2.52,-1.61
-0.89,-0.43,-0.14,-1.12,-2.59,-1.54
-0.89,-0.43,-0.14,-1.05,-2.59,-1.68
-0.89,-0.43,-0.15,-0.98,-2.38,-1.47
-0.89,-0.43,-0.15,-0.77,-2.38,-1.26
-0.89,-0.43,-0.14,-0.63,-2.31,-1.26
-0.9,-0.43,-0.14,-0.21,-2.38,-1.26
-0.89,-0.43,-0.14,0.07,-2.38,-1.19
-0.89,-0.43,-0.14,0,-2.24,-1.19
-0.89,-0.43,-0.15,-0.21,-1.89,-1.33
-0.89,-0.43,-0.14,0.21,-2.03,-1.4
-0.89,-0.42,-0.15,0.35,-1.61,-1.75
-0.89,-0.42,-0.15,0.42,-1.54,-1.61
-0.89,-0.42,-0.15,0.21,-1.61,-1.75
-0.9,-0.42,-0.15,0.21,-1.89,-1.68
-0.9,-0.41,-0.15,-0.21,-1.89,-1.75
-0.9,-0.41,-0.14,-0.07,-2.03,-1.4
-0.9,-0.41,-0.14,-0.42,-2.1,-1.54
-0.9,-0.42,-0.14,-0.28,-2.31,-1.47
-0.9,-0.42,-0.14,-0.91,-2.38,-1.75
-0.9,-0.42,-0.14,-1.4,-2.38,-1.89
-0.89,-0.42,-0.14,-1.33,-2.38,-1.96
-0.89,-0.42,-0.15,-1.26,-2.66,-1.96
-0.88,-0.43,-0.15,-1.4,-2.45,-2.03
-0.9,-0.43,-0.15,-0.77,-2.45,-2.1
-0.89,-0.43,-0.15,-0.91,-2.17,-2.31
-0.89,-0.43,-0.15,-0.63,-2.1,-2.45
-0.89,-0.42,-0.15,-1.05,-2.31,-2.59
-0.89,-0.43,-0.15,-1.19,-2.59,-2.66
-0.89,-0.43,-0.14,-1.33,-2.52,-2.66
-0.89,-0.42,-0.14,-1.54,-2.73,-2.52
-0.9,-0.42,-0.14,-2.17,-2.52,-2.52
-0.89,-0.44,-0.14,-2.1,-2.66,-2.73
-0.89,-0.43,-0.15,-1.68,-2.73,-2.66
-0.89,-0.43,-0.15,-1.61,-2.94,-2.73
-0.89,-0.43,-0.15,-1.68,-2.94,-2.8
-0.89,-0.43,-0.15,-1.68,-2.66,-3.01
-0.89,-0.43,-0.15,-1.89,-2.87,-3.01
-0.89,-0.42,-0.15,-2.59,-3.08,-2.66
-0.9,-0.43,-0.15,-2.24,-3.15,-2.94
-0.89,-0.43,-0.15,-2.31,-3.08,-3.01
-0.89,-0.43,-0.15,-2.31,-3.08,-2.73
-0.89,-0.43,-0.15,-2.24,-3.08,-2.59
-0.89,-0.42,-0.15,-2.03,-3.36,-2.45
-0.9,-0.42,-0.15,-2.31,-3.36,-2.38
-0.9,-0.42,-0.15,-2.66,-3.5,-2.31
-0.89,-0.42,-0.14,-3.01,-3.64,-2.38
-0.9,-0.42,-0.14,-2.66,-3.43,-1.96
-0.89,-0.43,-0.14,-2.94,-3.64,-1.47
-0.89,-0.43,-0.14,-2.38,-3.43,-1.54
-0.89,-0.43,-0.14,-2.1,-3.5,-1.75
-0.89,-0.43,-0.15,-1.96,-3.29,-1.61
-0.89,-0.43,-0.15,-2.17,-3.43,-1.26
-0.89,-0.43,-0.15,-2.38,-3.29,-1.4
-0.89,-0.43,-0.15,-2.31,-3.36,-1.26
-0.89,-0.43,-0.15,-2.38,-3.22,-1.05
-0.89,-0.43,-0.15,-2.45,-3.22,-1.05
-0.9,-0.43,-0.15,-2.31,-3.57,-0.98
-0.9,-0.43,-0.14,-2.31,-3.43,-1.05
-0.89,-0.43,-0.15,-2.73,-3.5,-1.33
-0.89,-0.43,-0.15,-3.5,-3.71,-1.54
-0.88,-0.44,-0.15,-3.71,-3.78,-1.82
-0.88,-0.44,-0.15,-3.64,-3.85,-2.03
-0.88,-0.45,-0.15,-3.92,-3.78,-2.66
-0.88,-0.45,-0.15,-3.15,-3.71,-2.52
-0.88,-0.45,-0.15,-2.87,-3.36,-2.8
-0.88,-0.45,-0.15,-2.59,-3.08,-2.8
-0.88,-0.45,-0.15,-2.52,-3.08,-2.73
-0.88,-0.45,-0.15,-2.52,-3.01,-2.8
-0.89,-0.44,-0.15,-2.03,-2.73,-2.87
-0.89,-0.44,-0.15,-2.03,-2.87,-2.59
-0.89,-0.45,-0.15,-2.38,-2.59,-2.87
-0.89,-0.44,-0.15,-1.68,-2.66,-2.8
-0.89,-0.44,-0.15,-1.54,-2.59,-2.87
-0.89,-0.44,-0.15,-1.61,-2.59,-3.01
-0.89,-0.43,-0.15,-1.82,-2.52,-2.8
-0.89,-0.44,-0.16,-1.75,-2.66,-2.73
-0.88,-0.44,-0.15,-1.75,-2.59,-2.87
-0.89,-0.44,-0.15,-1.75,-2.52,-2.94
-0.88,-0.44,-0.14,-1.54,-2.52,-2.87
-0.89,-0.44,-0.15,-0.63,-2.45,-2.45
-0.89,-0.44,-0.15,-0.7,-2.03,-2.45
-0.89,-0.44,-0.15,-0.49,-2.24,-2.45
-0.89,-0.44,-0.15,-0.56,-2.45,-2.38
-0.89,-0.44,-0.16,-0.42,-2.31,-2.73
-0.88,-0.44,-0.16,-0.63,-2.24,-2.94
-0.88,-0.44,-0.16,-0.98,-2.17,-3.01
-0.88,-0.44,-0.16,-1.12,-2.1,-3.15
-0.88,-0.45,-0.15,-0.84,-1.75,-3.78
-0.88,-0.45,-0.15,-0.49,-1.82,-3.57
-0.88,-0.45,-0.15,0,-1.82,-3.64
-0.88,-0.45,-0.16,0.56,-1.96,-3.29
-0.88,-0.44,-0.15,0.35,-1.61,-3.22
-0.89,-0.44,-0.15,0.49,-1.75,-2.87
-0.89,-0.45,-0.15,0.21,-1.68,-2.66
-0.89,-0.44,-0.15,0.28,-1.75,-2.87
-0.89,-0.44,-0.15,0.14,-1.75,-2.8
-0.89,-0.44,-0.15,0.35,-1.75,-3.01
-0.89,-0.44,-0.15,0.28,-1.68,-3.22
-0.89,-0.44,-0.16,-0.07,-2.03,-3.5
-0.88,-0.44,-0.16,0,-2.03,-3.64
-0.88,-0.44,-0.16,0.14,-2.03,-3.57
-0.87,-0.45,-0.16,0,-1.89,-3.71
-0.87,-0.44,-0.16,-0.42,-2.17,-3.78
-0.88,-0.44,-0.16,-1.12,-2.31,-3.57
-0.89,-0.44,-0.15,-0.91,-2.38,-3.43
-0.89,-0.44,-0.15,-0.63,-2.73,-3.43
-0.9,-0.44,-0.15,-0.56,-2.8,-3.36
-0.89,-0.44,-0.15,-0.56,-2.8,-3.01
-0.89,-0.45,-0.16,-0.84,-2.66,-3.36
-0.89,-0.45,-0.16,-1.19,-2.94,-3.22
-0.88,-0.45,-0.16,-1.26,-3.29,-3.43
-0.87,-0.45,-0.16,-1.19,-3.5,-3.43
-0.87,-0.46,-0.17,-1.54,-3.43,-3.22
-0.87,-0.47,-0.16,-1.82,-3.22,-3.22
-0.87,-0.45,-0.15,-3.15,-3.22,-2.24
-0.88,-0.47,-0.15,-0.77,-3.08,-2.38
-0.87,-0.46,-0.14,0.21,-2.45,-2.24
-0.88,-0.46,-0.15,0.91,-2.38,-1.96
-0.88,-0.45,-0.14,1.61,-2.31,-1.33
-0.88,-0.45,-0.15,1.47,-2.1,-1.19
-0.89,-0.45,-0.14,1.47,-2.03,-0.91
-0.89,-0.45,-0.15,1.68,-2.38,-0.56
-0.89,-0.45,-0.15,1.26,-2.45,-0.56
-0.89,-0.45,-0.15,0.77,-2.24,-0.84
-0.88,-0.44,-0.15,1.12,-2.59,-0.56
-0.88,-0.44,-0.15,0.91,-2.52,-0.49
-0.88,-0.44,-0.15,1.12,-2.8,-0.63
-0.88,-0.45,-0.15,1.26,-2.73,-0.77
-0.88,-0.45,-0.15,1.19,-2.59,-0.63
-0.88,-0.45,-0.15,1.05,-2.59,-0.84
-0.88,-0.45,-0.15,1.05,-2.73,-0.63
-0.88,-0.45,-0.15,0.7,-2.66,-0.63
-0.88,-0.45,-0.14,0.7,-2.31,-0.42
-0.88,-0.45,-0.14,0.84,-2.31,-0.77
-0.88,-0.45,-0.15,1.26,-2.31,-0.42
-0.88,-0.45,-0.15,1.12,-2.24,-0.56
-0.88,-0.45,-0.15,0.84,-2.17,-0.56
-0.88,-0.45,-0.15,0.7,-1.96,-0.63
-0.88,-0.45,-0.15,1.19,-2.52,-0.42
-0.88,-0.45,-0.15,0.91,-2.45,-0.42
-0.88,-0.45,-0.15,0.49,-2.31,-0.49
-0.88,-0.45,-0.14,0.84,-2.24,-0.42
-0.88,-0.45,-0.15,1.4,-2.1,-0.35
-0.88,-0.45,-0.15,1.82,-1.96,-0.42
-0.88,-0.46,-0.15,1.4,-1.96,-0.63
-0.88,-0.46,-0.15,1.33,-1.96,-0.49
-0.88,-0.45,-0.14,1.4,-1.75,-0.49
-0.88,-0.45,-0.15,1.82,-1.68,-0.42
-0.88,-0.45,-0.15,1.75,-1.61,-0.56
-0.88,-0.45,-0.15,1.12,-1.75,-0.56
-0.89,-0.44,-0.15,1.33,-1.75,-0.77
-0.89,-0.44,-0.14,1.54,-1.68,-0.63
-0.88,-0.44,-0.15,1.54,-1.96,-0.7
-0.88,-0.45,-0.15,1.26,-2.1,-0.91
-0.88,-0.45,-0.15,1.05,-2.03,-0.98
-0.88,-0.45,-0.15,1.12,-2.03,-0.91
-0.88,-0.45,-0.15,1.4,-2.1,-1.05
-0.88,-0.45,-0.15,1.05,-2.1,-0.98
-0.88,-0.45,-0.15,0.35,-1.89,-1.05
-0.88,-0.45,-0.14,1.19,-2.03,-0.63
-0.88,-0.45,-0.14,1.05,-1.89,-0.84
-0.89,-0.45,-0.14,0.7,-1.75,-0.84
-0.88,-0.44,-0.15,0.77,-1.75,-0.77
-0.88,-0.45,-0.15,0.7,-1.82,-0.77
-0.88,-0.45,-0.15,0.49,-2.03,-0.98
-0.88,-0.44,-0.15,0.28,-2.31,-0.98
-0.88,-0.45,-0.16,0.42,-2.66,-1.12
-0.88,-0.45,-0.16,-0.21,-2.59,-1.47
-0.88,-0.45,-0.15,-0.84,-2.38,-1.54
-0.88,-0.45,-0.15,-0.42,-2.38,-1.4
-0.88,-0.45,-0.15,0.21,-2.24,-1.4
-0.88,-0.45,-0.15,0.28,-2.17,-1.19
-0.88,-0.45,-0.15,0.21,-2.38,-1.12
-0.88,-0.45,-0.15,0.21,-2.31,-1.12
-0.88,-0.45,-0.15,0.14,-2.52,-1.05
-0.88,-0.45,-0.15,0,-2.59,-0.91
-0.88,-0.45,-0.15,-0.21,-2.38,-0.84
-0.88,-0.45,-0.15,0.14,-2.17,-0.77
-0.88,-0.46,-0.15,0.28,-2.38,-0.49
-0.88,-0.46,-0.15,0.14,-2.03,-0.56
-0.88,-0.45,-0.15,0.49,-1.89,-0.56
-0.88,-0.45,-0.15,0.91,-2.03,-0.49
-0.88,-0.45,-0.15,0.77,-1.96,-0.49
-0.88,-0.44,-0.15,0.7,-2.1,-0.49
-0.89,-0.44,-0.15,0.49,-2.1,-0.42
-0.89,-0.44,-0.14,0.28,-2.38,0
-0.89,-0.43,-0.14,0.07,-2.24,0.28
-0.89,-0.44,-0.14,0.07,-2.24,0.42
-0.89,-0.44,-0.14,-0.28,-2.52,0.42
-0.89,-0.45,-0.15,-0.21,-2.8,0.21
-0.88,-0.45,-0.16,-0.42,-2.66,0.07
-0.87,-0.45,-0.15,-0.42,-2.38,-0.7
-0.87,-0.45,-0.16,-0.49,-2.8,-0.77
-0.87,-0.45,-0.16,-0.91,-2.66,-1.19
-0.87,-0.45,-0.16,-0.98,-2.52,-1.54
-0.87,-0.45,-0.16,-0.91,-2.59,-1.68
-0.88,-0.45,-0.16,-0.91,-2.73,-1.68
-0.88,-0.45,-0.16,-1.12,-2.66,-1.96
-0.88,-0.46,-0.15,-1.26,-2.59,-1.61
-0.88,-0.46,-0.15,-0.84,-2.59,-1.54
-0.88,-0.46,-0.14,-0.98,-2.31,-1.61
-0.88,-0.45,-0.15,-0.49,-2.17,-1.61
-0.88,-0.45,-0.15,-0.28,-2.03,-1.68
-0.88,-0.45,-0.15,-0.35,-2.38,-1.4
-0.88,-0.45,-0.15,-0.56,-2.03,-1.54
-0.88,-0.45,-0.15,-0.14,-2.24,-1.19
-0.88,-0.45,-0.15,-0.28,-2.03,-1.33
-0.88,-0.45,-0.15,-0.42,-2.1,-1.26
-0.88,-0.45,-0.15,-0.49,-2.17,-1.33
-0.88,-0.45,-0.15,-0.21,-2.31,-1.05
-0.88,-0.45,-0.15,-0.14,-2.24,-1.19
-0.88,-0.45,-0.15,-0.07,-2.17,-1.12
-0.88,-0.45,-0.15,-0.07,-2.24,-1.12
-0.88,-0.45,-0.15,-0.14,-2.45,-0.98
-0.88,-0.45,-0.16,-0.14,-2.31,-1.26
-0.88,-0.45,-0.16,-0.14,-2.38,-1.19
-0.88,-0.45,-0.15,-0.28,-2.31,-1.12
-0.88,-0.45,-0.15,-0.28,-2.1,-1.19
-0.89,-0.45,-0.15,0.49,-2.31,-1.05
-0.88,-0.45,-0.15,0.63,-2.38,-1.33
-0.88,-0.45,-0.16,-0.07,-1.96,-1.05
-0.88,-0.45,-0.15,0.14,-1.96,-0.84
-0.88,-0.45,-0.15,0,-2.31,-0.84
-0.88,-0.45,-0.15,-0.07,-2.52,-1.05
-0.88,-0.45,-0.16,-0.49,-2.87,-0.91
-0.88,-0.45,-0.16,-0.63,-2.59,-0.98
-0.88,-0.45,-0.15,-0.28,-2.52,-0.91
-0.88,-0.46,-0.15,-0.07,-2.31,-0.7
-0.87,-0.46,-0.16,0.28,-2.17,-0.91
-0.88,-0.46,-0.16,0.28,-2.17,-0.77
-0.88,-0.45,-0.15,0.21,-1.82,-1.12
-0.88,-0.45,-0.15,0.77,-1.89,-0.91
-0.88,-0.45,-0.15,0.56,-2.03,-0.77
-0.87,-0.46,-0.15,0.49,-2.17,-0.49
-0.88,-0.45,-0.15,0.28,-2.17,-0.84
-0.88,-0.45,-0.15,0.35,-2.24,-0.07
-0.89,-0.45,-0.15,0.35,-2.17,-0.28
-0.88,-0.45,-0.16,0.63,-2.45,0
-0.88,-0.45,-0.16,0.35,-2.1,-0.35
-0.88,-0.45,-0.16,0.84,-2.24,-0.35
-0.88,-0.45,-0.16,0.77,-2.24,-0.63
-0.88,-0.45,-0.16,0.49,-2.45,-0.7
-0.88,-0.46,-0.15,0.14,-2.31,-0.84
-0.87,-0.46,-0.15,0.14,-2.59,-0.56
-0.87,-0.46,-0.15,-0.07,-2.52,-0.56
-0.87,-0.46,-0.15,-0.28,-2.59,-0.49
-0.88,-0.45,-0.15,0,-2.59,-0.21
-0.89,-0.45,-0.15,0.42,-2.45,0.07
-0.89,-0.45,-0.15,0.56,-2.45,0.14
-0.89,-0.45,-0.15,0.91,-2.24,0.42
-0.88,-0.45,-0.16,1.26,-2.17,0.49
-0.88,-0.45,-0.16,0.7,-2.38,0.28
-0.88,-0.45,-0.16,0.56,-2.73,0.21
-0.88,-0.44,-0.15,0.21,-2.87,0.28
-0.88,-0.45,-0.16,-0.28,-2.94,-0.28
-0.88,-0.45,-0.16,-0.35,-3.08,-0.49
-0.87,-0.45,-0.16,-0.56,-3.08,-0.63
-0.87,-0.45,-0.16,-0.7,-3.01,-0.56
-0.88,-0.45,-0.16,-0.28,-3.22,-0.56
-0.88,-0.45,-0.15,-0.21,-2.94,-0.49
-0.88,-0.46,-0.15,-0.07,-2.87,-0.28
-0.88,-0.45,-0.14,0.42,-2.8,-0.07
-0.88,-0.45,-0.14,0.7,-2.87,0.07
-0.88,-0.45,-0.15,0.28,-2.73,0.07
-0.89,-0.45,-0.15,-0.14,-2.59,-0.07
-0.88,-0.45,-0.15,0,-2.87,-0.28
-0.88,-0.44,-0.16,-0.28,-2.8,-0.35
-0.88,-0.44,-0.16,-0.28,-2.8,-0.42
-0.88,-0.44,-0.15,-0.56,-2.73,-0.63
-0.88,-0.44,-0.16,0.21,-3.08,-0.63
-0.88,-0.44,-0.15,0.14,-3.15,-0.7
-0.88,-0.45,-0.15,-0.35,-2.94,-0.77
-0.88,-0.45,-0.14,-0.35,-2.94,-0.42
-0.88,-0.46,-0.14,0.14,-2.8,-0.49
-0.88,-0.46,-0.14,0.21,-2.52,0
-0.88,-0.45,-0.15,0.56,-2.17,0
-0.88,-0.45,-0.15,1.26,-2.1,-0.07
-0.88,-0.44,-0.15,1.12,-2.03,-0.07
-0.88,-0.44,-0.15,0.98,-2.17,-0.14
-0.88,-0.45,-0.15,1.12,-2.24,-0.21
-0.88,-0.45,-0.15,0.7,-2.31,-0.14
-0.88,-0.45,-0.15,0.21,-2.31,-0.28
-0.89,-0.45,-0.15,0.35,-2.1,-0.49
-0.89,-0.44,-0.15,0.49,-2.38,-0.42
-0.88,-0.44,-0.15,0.7,-2.45,-0.07
-0.88,-0.44,-0.15,0.35,-2.17,0.07
-0.88,-0.45,-0.15,0.91,-2.03,0.14
-0.88,-0.45,-0.15,1.33,-2.1,0.42
-0.88,-0.45,-0.15,1.26,-2.03,0.91
-0.88,-0.44,-0.14,1.33,-1.68,0.56
-0.89,-0.45,-0.15,1.75,-1.68,0.28
-0.89,-0.44,-0.15,1.33,-1.75,-0.14
-0.88,-0.44,-0.15,1.47,-1.61,0.14
-0.88,-0.44,-0.16,1.82,-1.89,-0.07
-0.88,-0.44,-0.16,1.33,-1.89,-0.35
-0.88,-0.44,-0.16,0.7,-2.03,-0.49
-0.88,-0.44,-0.16,0.7,-2.1,-0.42
-0.88,-0.44,-0.15,1.12,-1.82,-0.63
-0.89,-0.43,-0.15,0.84,-2.17,-0.84
-0.89,-0.43,-0.15,0.14,-2.59,-0.77
-0.89,-0.43,-0.16,-0.77,-3.15,-0.98
-0.89,-0.43,-0.15,-1.05,-3.36,-1.05
-0.89,-0.44,-0.15,-1.47,-3.71,-1.05
-0.89,-0.44,-0.15,-1.61,-3.64,-0.98
-0.89,-0.44,-0.15,-1.61,-3.36,-0.98
-0.89,-0.44,-0.15,-1.47,-3.43,-0.91
-0.89,-0.44,-0.15,-1.33,-3.29,-0.77
-0.89,-0.44,-0.15,-1.68,-3.36,-0.84
-0.89,-0.44,-0.15,-1.68,-3.57,-0.91
-0.88,-0.44,-0.15,-1.61,-3.71,-1.19
-0.88,-0.44,-0.15,-2.17,-3.85,-1.61
-0.88,-0.44,-0.16,-2.31,-3.64,-1.68
-0.89,-0.44,-0.15,-2.31,-3.57,-1.96
-0.88,-0.44,-0.15,-2.1,-3.85,-1.96
-0.88,-0.44,-0.15,-2.17,-3.85,-1.75
-0.88,-0.44,-0.15,-2.38,-3.85,-1.61
-0.88,-0.45,-0.14,-2.59,-3.64,-1.54
-0.88,-0.45,-0.15,-1.89,-3.57,-1.33
-0.88,-0.45,-0.15,-1.12,-3.29,-1.19
-0.88,-0.46,-0.15,-0.35,-2.59,-0.91
-0.88,-0.45,-0.14,0.35,-2.17,-0.84
-0.89,-0.44,-0.15,-0.42,-2.66,-0.63
-0.89,-0.43,-0.15,-0.42,-2.94,-0.56
-0.88,-0.45,-0.14,0.35,-2.45,-0.56
-0.89,-0.45,-0.14,-0.14,-2.87,-0.42
-0.89,-0.46,-0.14,0.28,-2.52,-0.42
-0.88,-0.45,-0.16,0.98,-2.17,-0.28
-0.88,-0.45,-0.16,0.42,-1.82,-0.63
-0.89,-0.45,-0.16,0.49,-2.24,-0.49
-0.89,-0.44,-0.15,0,-2.45,-0.84
-0.89,-0.43,-0.15,0.14,-2.59,-0.91
-0.88,-0.43,-0.15,0.14,-2.73,-1.19
-0.88,-0.44,-0.15,-0.77,-2.66,-1.33
-0.88,-0.44,-0.15,-0.63,-2.52,-1.19
-0.88,-0.45,-0.14,-0.28,-2.52,-0.84
-0.89,-0.45,-0.14,-0.49,-2.66,-0.56
-0.89,-0.45,-0.14,-0.28,-2.73,-0.14
-0.89,-0.44,-0.14,0,-2.1,0
-0.9,-0.44,-0.14,0.21,-2.45,0.35
-0.9,-0.43,-0.15,0.07,-3.08,0.35
-0.89,-0.43,-0.16,-0.42,-3.22,0.35
-0.88,-0.43,-0.16,-0.42,-3.36,0.28
-0.88,-0.45,-0.14,-0.56,-2.8,0.21
-0.87,-0.46,-0.13,0.7,-2.03,0.21
-0.87,-0.46,-0.13,0.84,-1.61,0.14
-0.88,-0.45,-0.15,0.35,-2.59,0.35
-0.88,-0.44,-0.16,0.14,-1.96,0.14
-0.9,-0.43,-0.17,-0.14,-2.52,0.07
-0.89,-0.44,-0.16,0.56,-2.17,0
-0.89,-0.45,-0.15,0.77,-2.24,-0.21
-0.88,-0.47,-0.14,1.12,-1.96,-0.28
-0.87,-0.46,-0.13,1.4,-1.26,-0.21
-0.87,-0.46,-0.13,1.96,-0.98,-0.7
-0.88,-0.45,-0.15,1.54,-1.19,-0.7
-0.88,-0.45,-0.16,0.98,-1.4,-1.05
-0.89,-0.44,-0.17,0.21,-1.68,-1.26
-0.89,-0.44,-0.17,0.21,-1.82,-1.4
-0.88,-0.44,-0.16,0.77,-1.89,-1.61
-0.88,-0.44,-0.15,0.84,-1.54,-1.82
-0.88,-0.44,-0.15,1.12,-1.68,-1.61
-0.88,-0.44,-0.15,0.7,-1.75,-1.89
-0.88,-0.44,-0.16,0.42,-2.24,-1.68
-0.89,-0.44,-0.16,0.07,-2.1,-2.17
-0.88,-0.44,-0.15,0.14,-1.75,-2.1
-0.89,-0.44,-0.15,0.42,-2.17,-1.89
-0.89,-0.45,-0.15,0.7,-2.17,-1.75
-0.88,-0.45,-0.15,1.12,-1.82,-1.54
-0.88,-0.45,-0.15,1.12,-1.61,-1.54
-0.89,-0.44,-0.14,1.05,-1.61,-1.33
-0.89,-0.44,-0.14,0.91,-1.75,-1.54
-0.89,-0.43,-0.15,0.28,-2.31,-1.61
-0.89,-0.44,-0.15,-0.35,-2.38,-1.75
-0.89,-0.44,-0.15,-0.84,-2.66,-1.75
-0.89,-0.44,-0.15,-1.33,-3.01,-1.89
-0.89,-0.44,-0.15,-1.26,-2.73,-1.89
-0.88,-0.44,-0.15,-0.98,-2.87,-2.17
-0.88,-0.44,-0.16,-1.26,-3.01,-2.38
-0.88,-0.44,-0.16,-1.47,-2.94,-2.73
-0.88,-0.45,-0.16,-0.98,-2.87,-2.8
-0.88,-0.45,-0.15,-0.77,-2.8,-2.59
-0.88,-0.45,-0.15,-0.7,-2.52,-2.52
-0.89,-0.45,-0.15,-0.91,-2.66,-2.59
-0.89,-0.44,-0.15,-1.05,-2.8,-2.24
-0.88,-0.44,-0.14,-1.19,-2.73,-2.38
-0.88,-0.45,-0.14,-0.7,-2.73,-2.31
-0.88,-0.45,-0.15,-0.49,-2.73,-1.89
-0.88,-0.46,-0.15,-0.35,-2.73,-1.61
-0.88,-0.46,-0.16,-0.14,-2.45,-1.68
-0.88,-0.45,-0.15,0.63,-1.96,-1.61
-0.89,-0.45,-0.15,0.7,-2.1,-1.68
-0.89,-0.45,-0.15,0.42,-2.24,-1.68
-0.88,-0.45,-0.15,0.49,-1.96,-1.96
-0.87,-0.46,-0.15,0.77,-1.54,-2.03
-0.88,-0.45,-0.16,0.28,-2.24,-2.17
-0.87,-0.46,-0.15,1.4,-2.24,-1.82
-0.87,-0.45,-0.15,0.28,-2.03,-2.38
-0.88,-0.45,-0.14,0.63,-1.96,-1.82
-0.88,-0.45,-0.15,0.56,-1.96,-1.96
-0.88,-0.45,-0.15,1.19,-1.68,-1.61
-0.88,-0.45,-0.14,1.4,-1.54,-1.26
-0.89,-0.44,-0.15,0.63,-2.03,-1.19
-0.89,-0.44,-0.15,0.56,-1.96,-1.33
-0.88,-0.45,-0.15,0.35,-2.17,-1.82
-0.88,-0.45,-0.16,0.14,-2.38,-1.61
-0.87,-0.46,-0.15,-0.14,-2.24,-1.96
-0.87,-0.46,-0.15,0.21,-2.1,-1.96
-0.88,-0.45,-0.15,0.63,-1.82,-1.89
-0.88,-0.45,-0.15,0.84,-1.61,-2.17
-0.88,-0.46,-0.16,1.19,-1.54,-2.03
-0.88,-0.46,-0.15,1.12,-1.26,-1.61
-0.89,-0.46,-0.14,1.75,-1.4,-1.19
-0.89,-0.45,-0.14,1.89,-1.75,-1.12
-0.89,-0.45,-0.15,1.33,-1.75,-0.84
-0.89,-0.45,-0.15,0.56,-1.96,-0.63
-0.88,-0.45,-0.14,0.63,-2.24,-0.49
-0.88,-0.45,-0.14,0.49,-1.75,-0.63
-0.87,-0.45,-0.15,0.77,-1.68,-0.35
-0.87,-0.45,-0.16,1.12,-1.61,-0.42
-0.87,-0.45,-0.16,1.12,-1.54,-0.7
-0.87,-0.45,-0.16,1.19,-1.4,-0.91
-0.88,-0.45,-0.16,1.33,-1.4,-0.98
-0.88,-0.45,-0.16,1.26,-1.61,-1.26
-0.88,-0.45,-0.16,0.7,-1.96,-1.54
-0.88,-0.45,-0.15,-0.56,-2.1,-1.68
-0.89,-0.44,-0.15,-0.63,-2.45,-1.75
-0.89,-0.44,-0.15,-0.77,-2.59,-1.54
-0.88,-0.45,-0.15,-1.05,-2.8,-1.47
-0.88,-0.45,-0.16,-1.47,-2.8,-1.54
-0.88,-0.45,-0.15,-1.19,-2.8,-1.26
-0.88,-0.45,-0.15,-0.63,-2.87,-0.91
-0.88,-0.46,-0.15,-0.14,-2.87,-0.7
-0.87,-0.46,-0.16,-0.07,-2.52,-0.84
-0.87,-0.46,-0.16,-0.14,-2.31,-0.84
-0.87,-0.47,-0.16,0.28,-2.38,-0.91
-0.87,-0.46,-0.16,0.14,-2.24,-1.05
-0.87,-0.46,-0.16,0.07,-2.1,-1.05
-0.88,-0.45,-0.16,0.14,-2.17,-1.4
-0.88,-0.45,-0.16,0.07,-2.31,-1.47
-0.88,-0.45,-0.16,0.07,-2.38,-1.61
-0.88,-0.45,-0.15,0.35,-2.73,-1.4
-0.88,-0.45,-0.15,-0.21,-2.66,-1.4
-0.88,-0.46,-0.15,-0.56,-2.52,-1.26
-0.88,-0.46,-0.14,-0.21,-2.52,-1.05
-0.88,-0.46,-0.14,0.49,-2.66,-0.77
-0.88,-0.46,-0.15,0.42,-2.38,-0.77
-0.88,-0.46,-0.15,0.35,-2.17,-0.63
-0.88,-0.45,-0.15,0.49,-2.17,-0.63
-0.88,-0.45,-0.16,0.91,-2.31,-0.21
-0.87,-0.45,-0.16,0.49,-2.03,-0.28
-0.88,-0.45,-0.15,0.35,-1.89,-0.42
-0.88,-0.46,-0.15,0.91,-2.03,-0.07
-0.88,-0.46,-0.15,1.19,-2.03,-0.07
-0.88,-0.45,-0.15,0.98,-1.89,0.07
-0.88,-0.45,-0.15,1.33,-2.31,0.21
-0.88,-0.45,-0.16,0.77,-2.24,-0.21
-0.88,-0.45,-0.16,0.42,-2.24,-0.14
-0.88,-0.45,-0.15,0,-2.31,-0.28
-0.88,-0.45,-0.16,0.21,-2.59,-0.28
-0.88,-0.45,-0.16,0.07,-2.73,-0.56
-0.88,-0.45,-0.16,-0.42,-2.73,-0.56
-0.88,-0.45,-0.16,-0.63,-3.01,-0.63
-0.87,-0.45,-0.16,-0.63,-3.15,-0.77
-0.87,-0.45,-0.16,-0.77,-3.01,-0.91
-0.88,-0.46,-0.16,-0.42,-3.29,-0.77
-0.87,-0.46,-0.15,-0.42,-3.08,-0.84
-0.87,-0.47,-0.15,0,-2.8,-0.63
-0.88,-0.46,-0.15,-0.14,-2.45,-0.84
-0.88,-0.46,-0.15,0.49,-2.38,-0.7
-0.88,-0.45,-0.15,0.7,-2.17,-0.63
-0.88,-0.45,-0.16,0.28,-2.45,-0.63
-0.88,-0.45,-0.15,0.42,-2.45,-0.56
-0.88,-0.46,-0.15,0.49,-2.38,-0.49
-0.87,-0.47,-0.14,0.77,-1.96,-0.35
-0.88,-0.46,-0.14,1.4,-1.75,-0.21
-0.88,-0.45,-0.15,1.54,-1.89,-0.14
-0.88,-0.44,-0.16,1.26,-1.68,-0.42
-0.88,-0.44,-0.16,0.63,-1.89,-0.49
-0.88,-0.44,-0.16,0.63,-2.24,-0.56
-0.88,-0.44,-0.15,0.49,-2.24,-0.77
-0.88,-0.45,-0.15,0.35,-2.45,-0.84
-0.88,-0.44,-0.15,0.07,-2.31,-1.05
-0.89,-0.44,-0.15,-0.07,-2.38,-0.98
-0.89,-0.44,-0.16,-0.56,-2.94,-1.12
-0.88,-0.44,-0.16,-0.77,-3.08,-1.12
-0.89,-0.44,-0.16,-1.4,-3.36,-0.98
-0.88,-0.45,-0.16,-1.54,-3.71,-1.19
-0.88,-0.44,-0.15,-1.82,-3.57,-1.47
-0.88,-0.44,-0.16,-2.52,-3.99,-1.68
-0.88,-0.45,-0.16,-3.01,-4.13,-1.75
-0.88,-0.45,-0.16,-3.5,-4.13,-1.96
-0.88,-0.45,-0.15,-2.94,-3.99,-2.03
-0.87,-0.46,-0.14,-2.59,-3.64,-2.1
-0.87,-0.46,-0.15,-2.17,-3.64,-1.96
-0.88,-0.47,-0.15,-2.1,-3.85,-1.75
-0.88,-0.46,-0.15,-2.45,-3.64,-2.1
-0.88,-0.45,-0.15,-3.01,-4.27,-2.1
-0.88,-0.45,-0.15,-4.06,-4.9,-1.68
-0.88,-0.45,-0.15,-3.71,-4.27,-1.54
-0.87,-0.47,-0.13,-2.03,-3.15,-1.26
-0.86,-0.48,-0.14,-0.56,-2.73,-0.77
-0.86,-0.49,-0.14,0.56,-2.31,-0.42
-0.87,-0.47,-0.15,0.91,-1.75,-0.07
-0.88,-0.47,-0.16,0.91,-1.89,0.28
-0.87,-0.47,-0.16,1.89,-1.47,0.42
-0.88,-0.46,-0.14,1.96,-1.47,0.28
-0.89,-0.46,-0.14,1.89,-1.47,0.35
-0.88,-0.45,-0.15,2.17,-1.47,0.21
-0.88,-0.46,-0.15,2.31,-1.12,0.14
-0.87,-0.46,-0.15,2.1,-1.26,0.14
-0.87,-0.46,-0.15,1.89,-1.26,0.35
-0.87,-0.45,-0.15,2.24,-1.12,0.56
-0.88,-0.45,-0.15,1.61,-1.26,0.49
-0.88,-0.44,-0.16,1.61,-1.68,0.56
-0.89,-0.44,-0.16,1.19,-1.96,0.21
-0.89,-0.43,-0.16,0.98,-1.4,-0.14
-0.89,-0.44,-0.16,1.33,-1.61,-0.14
-0.88,-0.44,-0.16,0.98,-1.82,-0.49
-0.88,-0.44,-0.16,0.56,-1.89,-0.49
-0.88,-0.44,-0.16,1.12,-2.31,-0.21
-0.88,-0.45,-0.16,0.63,-2.31,-0.07
-0.89,-0.44,-0.15,0.42,-2.52,0
-0.89,-0.44,-0.15,0.42,-2.59,0.28
-0.89,-0.44,-0.15,0.7,-2.73,0.28
-0.88,-0.43,-0.15,0.49,-2.94,0.63
-0.89,-0.43,-0.16,0.21,-2.73,0.35
-0.89,-0.44,-0.16,0.07,-3.15,0.42
-0.88,-0.45,-0.16,0.56,-3.22,0.28
-0.88,-0.45,-0.16,-17.71,-3.15,-0.07
-0.88,-0.45,-0.15,-0.21,-3.22,-0.14
-0.87,-0.46,-0.16,0.21,-3.36,0.07
-0.87,-0.46,-0.16,0,-3.08,-0.35
-0.87,-0.45,-0.17,-0.07,-3.15,-0.35
-0.87,-0.45,-0.16,0.56,-3.15,-0.42
-0.87,-0.46,-0.16,0.63,-3.22,-0.63
-0.87,-0.46,-0.15,0.28,-2.87,-0.77
-0.87,-0.47,-0.15,0.7,-2.59,-1.05
-0.88,-0.46,-0.15,1.19,-2.73,-1.12
-0.88,-0.45,-0.15,0.98,-2.59,-1.05
-0.88,-0.46,-0.15,0.98,-2.38,-1.12
-0.88,-0.45,-0.16,1.47,-2.59,-1.05
-0.89,-0.45,-0.15,1.19,-2.59,-1.19
-0.88,-0.45,-0.14,0.98,-2.45,-1.19
-0.89,-0.44,-0.15,1.26,-2.66,-0.91
-0.89,-0.44,-0.14,1.19,-2.87,-0.56
-0.89,-0.44,-0.14,0.63,-2.66,-0.63
-0.89,-0.43,-0.15,0,-2.45,-0.63
-0.89,-0.44,-0.15,0.84,-3.29,-0.49
-0.88,-0.44,-0.15,0.35,-3.29,-0.35
-0.88,-0.45,-0.15,0.28,-3.15,-0.63
-0.88,-0.45,-0.15,0.07,-3.15,-0.84
-0.88,-0.46,-0.15,0.14,-3.08,-0.84
-0.88,-0.46,-0.15,0.35,-2.94,-0.77
-0.88,-0.46,-0.15,-0.07,-2.94,-0.7
-0.87,-0.46,-0.15,0.63,-2.59,-0.84
-0.87,-0.44,-0.14,-0.56,-1.54,-0.28
-0.89,-0.46,-0.14,1.05,-2.31,-0.7
-0.88,-0.45,-0.14,0.77,-2.52,-0.42
-0.88,-0.45,-0.14,1.26,-2.73,-0.35
-0.88,-0.45,-0.15,1.05,-2.31,-0.35
-0.88,-0.45,-0.14,1.19,-2.24,-0.28
-0.88,-0.45,-0.15,1.12,-2.31,-0.35
-0.88,-0.44,-0.15,0.98,-2.45,-0.63
-0.88,-0.45,-0.15,0.56,-2.38,-0.7
-0.88,-0.45,-0.15,0.42,-2.52,-0.7
-0.89,-0.45,-0.14,0.49,-2.52,-0.84
-0.88,-0.45,-0.14,0.63,-2.38,-0.91
-0.88,-0.45,-0.15,0.35,-2.66,-0.84
-0.88,-0.45,-0.15,-0.14,-2.38,-0.91
-0.88,-0.45,-0.14,0.42,-2.45,-0.63
-0.89,-0.45,-0.14,0.35,-2.31,-0.63
-0.88,-0.45,-0.15,0.21,-2.31,-0.63
-0.88,-0.45,-0.15,0.35,-2.45,-0.56
-0.88,-0.44,-0.15,0.21,-2.45,-0.56
-0.88,-0.45,-0.15,-0.07,-2.38,-0.63
-0.89,-0.45,-0.15,0,-2.73,-0.91
-0.88,-0.44,-0.15,-0.28,-2.8,-0.91
-0.88,-0.44,-0.15,-0.63,-2.8,-1.12
-0.88,-0.45,-0.15,-0.77,-2.73,-1.12
-0.88,-0.45,-0.15,-0.91,-2.66,-1.33
-0.89,-0.45,-0.15,-1.05,-2.59,-1.12
-0.88,-0.45,-0.15,-0.98,-2.94,-0.84
-0.88,-0.45,-0.15,-1.12,-3.08,-1.26
-0.88,-0.45,-0.15,-1.4,-3.22,-1.19
-0.88,-0.46,-0.15,-0.98,-2.66,-1.19
-0.88,-0.46,-0.14,-0.14,-2.31,-1.19
-0.87,-0.45,-0.14,0.14,-2.52,-1.12
-0.88,-0.45,-0.16,0.35,-2.38,-0.98
-0.88,-0.45,-0.16,0.07,-2.03,-1.19
-0.88,-0.45,-0.15,0.14,-2.24,-0.84
-0.88,-0.46,-0.15,0.56,-2.17,-1.05
-0.87,-0.46,-0.14,0.98,-1.68,-0.77
-0.87,-0.46,-0.14,1.47,-1.47,-0.77
-0.88,-0.45,-0.14,1.26,-1.26,-0.63
-0.88,-0.45,-0.15,1.54,-1.68,-0.63
-0.89,-0.44,-0.14,1.12,-1.33,-0.77
-0.89,-0.44,-0.14,1.33,-1.61,-0.63
-0.89,-0.43,-0.14,0.84,-2.1,-0.84
-0.89,-0.43,-0.15,0.56,-1.96,-0.91
-0.88,-0.44,-0.15,0.42,-2.31,-0.7
-0.89,-0.44,-0.15,-0.49,-2.66,-0.91
-0.89,-0.44,-0.15,-1.26,-2.8,-1.19
-0.89,-0.43,-0.15,-1.54,-3.29,-1.26
-0.89,-0.43,-0.16,-1.68,-3.64,-1.61
-0.89,-0.43,-0.16,-3.01,-4.13,-1.75
-0.88,-0.43,-0.15,-3.08,-4.34,-1.68
-0.89,-0.45,-0.15,-3.29,-4.34,-1.54
-0.88,-0.45,-0.14,-3.43,-3.99,-1.75
-0.88,-0.46,-0.15,-3.08,-4.27,-1.61
-0.87,-0.46,-0.15,-2.94,-4.06,-1.4
-0.87,-0.46,-0.16,-3.15,-3.5,-1.33
-0.88,-0.45,-0.15,-2.52,-3.64,-1.19
-0.88,-0.46,-0.15,-1.47,-3.64,-1.05
-0.88,-0.46,-0.15,-1.47,-3.57,-1.26
-0.88,-0.46,-0.15,-1.75,-3.22,-1.19
-0.88,-0.45,-0.15,-1.47,-3.15,-1.12
-0.88,-0.46,-0.15,-1.05,-3.29,-0.98
-0.88,-0.45,-0.15,-0.98,-2.94,-1.05
-0.88,-0.46,-0.15,-0.98,-2.66,-1.26
-0.88,-0.46,-0.15,-0.42,-2.73,-1.19
-0.87,-0.46,-0.16,-0.21,-2.73,-1.4
-0.87,-0.46,-0.16,-0.7,-2.73,-1.54
-0.88,-0.45,-0.15,-0.56,-2.66,-1.47
-0.88,-0.45,-0.15,-0.56,-2.73,-1.19
-0.89,-0.45,-0.14,0.07,-3.22,-0.63
-0.88,-0.45,-0.15,-0.42,-2.94,-0.77
-0.89,-0.45,-0.14,-0.42,-2.87,-0.56
-0.89,-0.44,-0.14,-0.14,-2.66,-0.42
-0.89,-0.44,-0.15,0.07,-2.52,-0.28
-0.88,-0.44,-0.16,0.14,-2.52,-0.35
-0.88,-0.45,-0.16,-0.21,-2.52,-0.7
-0.88,-0.45,-0.16,-0.14,-2.66,-0.91
-0.88,-0.45,-0.16,-0.28,-2.59,-0.91
-0.87,-0.45,-0.15,-0.35,-2.52,-1.19
-0.88,-0.45,-0.15,0.14,-2.8,-0.98
-0.88,-0.45,-0.15,-0.21,-3.01,-1.05
-0.88,-0.45,-0.15,-0.35,-3.01,-0.98
-0.88,-0.45,-0.15,-0.21,-2.87,-1.05
-0.88,-0.45,-0.15,-0.14,-3.15,-0.91
-0.88,-0.45,-0.15,-0.14,-2.94,-0.77
-0.88,-0.46,-0.15,-0.28,-2.73,-0.63
-0.88,-0.46,-0.14,0.21,-2.45,-0.28
-0.88,-0.46,-0.15,1.12,-2.24,-0.14
-0.88,-0.46,-0.15,1.26,-2.03,0.07
-0.88,-0.45,-0.15,1.33,-1.68,0.14
-0.88,-0.45,-0.15,1.68,-1.75,0.28
-0.88,-0.45,-0.15,1.82,-2.17,0.35
-0.88,-0.45,-0.15,1.19,-2.17,0.21
-0.88,-0.45,-0.14,1.12,-2.1,-0.14
-0.88,-0.45,-0.14,1.12,-2.59,0.07
-0.88,-0.45,-0.14,0.98,-2.73,0
-0.88,-0.46,-0.14,0.42,-2.31,-0.28
-0.88,-0.46,-0.14,0.49,-2.31,-0.14
-0.87,-0.47,-0.14,0.77,-2.45,0.07
-0.87,-0.46,-0.15,0.77,-2.1,0
-0.87,-0.46,-0.15,1.19,-1.96,-0.14
-0.88,-0.46,-0.15,1.4,-1.82,-0.35
-0.88,-0.45,-0.15,1.68,-1.89,-0.49
-0.88,-0.45,-0.15,1.82,-1.89,-0.42
-0.89,-0.44,-0.15,1.4,-1.89,-0.42
-0.89,-0.44,-0.14,1.47,-2.1,-0.35
-0.88,-0.44,-0.14,1.33,-2.38,-0.35
-0.88,-0.44,-0.14,0.56,-2.31,-0.14
-0.89,-0.45,-0.14,0.42,-2.31,-0.14
-0.88,-0.44,-0.14,0.7,-2.45,0.07
-0.88,-0.45,-0.15,1.05,-2.45,0.14
-0.88,-0.44,-0.15,1.26,-2.24,0.7
-0.89,-0.45,-0.15,1.4,-2.03,0.14
-0.88,-0.45,-0.15,2.03,-1.82,0
-0.88,-0.46,-0.15,2.03,-1.47,-0.07
-0.88,-0.46,-0.15,2.17,-1.54,0
-0.88,-0.45,-0.15,1.96,-1.33,0
-0.88,-0.45,-0.15,1.89,-1.54,-0.14
-0.88,-0.44,-0.15,1.68,-1.54,-0.14
-0.89,-0.44,-0.14,1.19,-1.68,-0.14
-0.89,-0.43,-0.14,1.05,-1.82,-0.14
-0.89,-0.43,-0.14,0.77,-2.03,-0.28
-0.89,-0.43,-0.14,0.49,-2.17,-0.28
-0.89,-0.44,-0.14,0.49,-2.45,-0.07
-0.89,-0.44,-0.15,0.49,-2.31,-0.07
-0.88,-0.44,-0.15,0.56,-2.59,0.07
-0.88,-0.44,-0.15,0.28,-2.52,0.07
-0.88,-0.44,-0.15,-0.14,-2.59,-0.07
-0.88,-0.45,-0.15,-0.07,-2.59,-0.07
-0.88,-0.45,-0.15,0.07,-2.8,-0.14
-0.88,-0.45,-0.15,-0.21,-2.45,-0.63
-0.88,-0.45,-0.15,0.21,-2.38,-0.63
-0.88,-0.45,-0.14,0.49,-2.38,-0.56
-0.88,-0.45,-0.14,0.56,-2.52,-0.63
-0.88,-0.45,-0.14,0.42,-2.31,-0.63
-0.88,-0.44,-0.15,0.42,-2.38,-0.42
-0.89,-0.44,-0.15,0.21,-2.73,-0.28
-0.88,-0.44,-0.15,0,-2.52,-0.42
-0.89,-0.45,-0.15,-0.07,-2.8,-0.42
-0.89,-0.45,-0.15,-0.28,-2.59,-0.56
-0.89,-0.45,-0.15,0.07,-2.59,-0.49
-0.89,-0.45,-0.15,0.49,-2.45,-0.63
-0.88,-0.45,-0.15,0.77,-2.31,-0.49
-0.88,-0.44,-0.15,0.63,-2.17,-0.7
-0.88,-0.44,-0.15,0.63,-2.17,-0.63
-0.89,-0.43,-0.14,0.35,-2.31,-0.77
-0.89,-0.43,-0.14,0.07,-2.45,-0.84
-0.89,-0.43,-0.14,-0.28,-2.87,-0.77
-0.89,-0.44,-0.14,-0.63,-2.87,-0.56
-0.89,-0.44,-0.14,-0.98,-2.8,-1.05
-0.89,-0.44,-0.14,-1.12,-3.01,-0.63
-0.89,-0.44,-0.15,-1.05,-3.08,-0.7
-0.89,-0.44,-0.15,-0.98,-3.15,-0.77
-0.89,-0.44,-0.15,-0.84,-3.08,-0.84
-0.88,-0.44,-0.15,-0.77,-2.94,-0.7
-0.88,-0.45,-0.15,-0.35,-2.87,-1.05
-0.88,-0.45,-0.15,-0.56,-2.66,-0.77
-0.88,-0.45,-0.15,-0.28,-2.59,-0.77
-0.88,-0.45,-0.15,-0.14,-2.66,-0.98
-0.88,-0.44,-0.15,-0.07,-2.73,-0.98
-0.88,-0.45,-0.15,-0.77,-2.52,-1.19
-0.88,-0.44,-0.15,-0.63,-2.87,-1.12
-0.88,-0.45,-0.15,-0.28,-2.73,-0.91
-0.88,-0.45,-0.14,-0.35,-2.38,-0.84
-0.89,-0.45,-0.14,-0.07,-2.66,-0.77
-0.88,-0.45,-0.14,0.35,-2.45,-0.84
-0.88,-0.45,-0.15,0.35,-2.38,-0.84
-0.88,-0.44,-0.15,0.56,-2.45,-0.77
-0.89,-0.42,-0.16,-0.91,-2.24,-2.66
-0.89,-0.43,-0.15,-1.12,-2.17,-3.01
-0.89,-0.43,-0.15,-1.33,-2.31,-3.29
-0.89,-0.43,-0.15,-1.68,-2.31,-3.64
-0.89,-0.43,-0.15,-1.61,-2.52,-3.64
-0.89,-0.43,-0.14,-1.75,-2.52,-3.64
-0.9,-0.43,-0.15,-2.03,-2.59,-3.57
-0.9,-0.43,-0.14,-1.75,-2.52,-3.08
-0.9,-0.43,-0.14,-1.4,-2.45,-2.87
-0.89,-0.42,-0.14,-1.68,-2.45,-2.66
-0.89,-0.42,-0.15,-1.68,-2.73,-2.38
-0.89,-0.43,-0.15,-1.96,-2.94,-2.45
-0.89,-0.43,-0.16,-2.45,-2.8,-2.52
-0.89,-0.43,-0.15,-2.87,-2.8,-2.38
-0.88,-0.44,-0.15,-2.38,-2.94,-2.24
-0.88,-0.44,-0.15,-1.75,-2.73,-2.24
-0.88,-0.44,-0.14,-1.68,-2.38,-1.89
-0.88,-0.44,-0.14,-1.61,-2.17,-1.68
-0.89,-0.44,-0.14,-0.98,-2.24,-1.54
-0.89,-0.44,-0.14,-0.91,-1.96,-1.33
-0.89,-0.44,-0.15,-0.84,-2.17,-1.4
-0.89,-0.44,-0.15,-1.05,-2.38,-1.68
-0.89,-0.44,-0.15,-1.19,-2.31,-1.4
-0.88,-0.44,-0.15,-1.05,-2.31,-1.12
-0.89,-0.44,-0.15,-1.33,-2.24,-1.33
-0.89,-0.44,-0.15,-1.12,-2.17,-1.05
-0.89,-0.44,-0.15,-0.84,-1.89,-1.12
-0.89,-0.44,-0.15,-0.63,-1.68,-1.19
-0.89,-0.44,-0.15,-0.28,-1.82,-0.84
-0.89,-0.43,-0.15,-0.42,-1.68,-0.98
-0.89,-0.43,-0.15,0.07,-1.75,-0.77
-0.89,-0.43,-0.15,0.07,-1.96,-0.7
-0.89,-0.44,-0.15,-0.49,-1.68,-1.19
-0.89,-0.44,-0.15,-0.28,-1.82,-0.84
-0.89,-0.44,-0.15,-0.14,-1.96,-0.7
-0.89,-0.44,-0.15,-0.35,-1.96,-0.77
-0.89,-0.44,-0.15,-0.63,-2.03,-0.98
-0.89,-0.43,-0.16,-0.91,-2.1,-1.19
-0.89,-0.43,-0.16,-0.91,-2.24,-1.05
-0.89,-0.43,-0.16,-0.91,-2.1,-1.12
-0.89,-0.43,-0.16,-0.56,-2.17,-0.91
-0.89,-0.43,-0.16,-0.49,-2.24,-0.98
-0.89,-0.43,-0.16,-0.63,-2.17,-1.19
-0.89,-0.43,-0.15,-0.42,-2.24,-1.05
-0.89,-0.43,-0.15,-0.77,-2.17,-1.26
-0.89,-0.43,-0.15,-0.35,-2.17,-1.05
-0.89,-0.43,-0.16,-0.49,-2.17,-1.19
-0.89,-0.43,-0.16,-0.35,-2.24,-1.19
-0.89,-0.43,-0.16,-0.49,-2.31,-1.19
-0.89,-0.43,-0.15,-0.77,-2.03,-1.19
-0.89,-0.43,-0.15,-0.42,-2.1,-1.33
-0.89,-0.43,-0.16,0.21,-2.45,-1.12
-0.89,-0.43,-0.16,0.21,-2.03,-1.33
-0.89,-0.43,-0.16,-0.28,-2.17,-1.54
-0.89,-0.42,-0.16,-0.7,-2.31,-1.54
-0.89,-0.43,-0.15,-0.77,-2.38,-1.68
-0.89,-0.43,-0.15,-0.77,-2.59,-1.47
-0.89,-0.43,-0.15,-1.12,-2.38,-1.75
-0.89,-0.43,-0.15,-1.12,-2.24,-1.96
-0.89,-0.43,-0.15,-0.63,-2.31,-1.75
-0.89,-0.43,-0.16,-0.35,-2.17,-1.68
-0.89,-0.44,-0.15,-0.14,-2.1,-1.61
-0.88,-0.44,-0.16,0.28,-2.1,-1.54
-0.88,-0.44,-0.16,0.63,-1.89,-1.47
-0.88,-0.44,-0.15,0.7,-1.75,-1.19
-0.89,-0.43,-0.15,0.77,-1.68,-1.19
-0.89,-0.43,-0.15,0.56,-1.75,-1.33
-0.89,-0.43,-0.15,0.35,-1.75,-1.47
-0.89,-0.43,-0.15,0.07,-1.75,-1.47
-0.89,-0.43,-0.16,0.07,-2.31,-1.12
-0.89,-0.43,-0.16,-0.42,-2.45,-1.61
-0.89,-0.43,-0.16,-0.49,-2.52,-1.96
-0.89,-0.43,-0.15,-0.56,-2.66,-2.24
-0.89,-0.43,-0.16,-0.56,-2.59,-2.1
-0.89,-0.43,-0.16,-0.56,-2.52,-2.03
-0.89,-0.44,-0.15,-0.77,-2.45,-2.24
-0.89,-0.44,-0.15,-0.49,-2.52,-2.03
-0.88,-0.44,-0.15,-0.77,-2.38,-2.1
-0.89,-0.44,-0.16,-0.49,-2.31,-2.1
-0.89,-0.44,-0.16,-0.42,-2.52,-2.1
-0.89,-0.43,-0.16,-0.7,-2.66,-2.1
-0.89,-0.43,-0.15,-0.28,-2.87,-1.89
-0.89,-0.43,-0.16,-0.84,-2.8,-1.89
-0.89,-0.43,-0.15,-1.12,-3.01,-1.68
-0.89,-0.44,-0.16,-1.61,-3.08,-1.96
-0.89,-0.44,-0.16,-1.47,-3.01,-2.03
-0.89,-0.44,-0.16,-1.47,-3.08,-2.03
-0.88,-0.44,-0.16,-1.26,-3.01,-1.96
-0.88,-0.44,-0.16,-1.05,-2.87,-1.82
-0.88,-0.45,-0.16,-0.28,-2.59,-1.89
-0.88,-0.45,-0.15,0.21,-2.45,-1.61
-0.88,-0.45,-0.15,-0.14,-2.17,-1.54
-0.88,-0.44,-0.15,-0.14,-2.1,-1.26
-0.89,-0.44,-0.15,-0.14,-2.24,-1.05
-0.89,-0.44,-0.16,-0.14,-2.45,-1.12
-0.89,-0.44,-0.15,-0.56,-2.45,-1.05
-0.89,-0.44,-0.16,-0.21,-2.8,-1.05
-0.89,-0.44,-0.16,-0.28,-2.73,-1.05
-0.88,-0.45,-0.16,-0.42,-2.66,-1.33
-0.88,-0.45,-0.16,-0.35,-2.52,-1.33
-0.88,-0.45,-0.15,-0.35,-2.24,-1.4
-0.88,-0.45,-0.16,-0.07,-2.03,-1.68
-0.88,-0.45,-0.16,0.42,-2.03,-1.61
-0.88,-0.44,-0.17,0.42,-2.24,-1.54
-0.88,-0.44,-0.16,-0.07,-2.31,-1.82
-0.88,-0.44,-0.15,-0.07,-2.45,-1.54
-0.89,-0.44,-0.15,0,-2.24,-1.19
-0.89,-0.44,-0.15,0.21,-2.1,-1.12
-0.89,-0.43,-0.15,-0.07,-2.24,-1.12
-0.89,-0.44,-0.15,-0.07,-2.17,-0.77
-0.89,-0.44,-0.16,0,-2.1,-0.91
-0.89,-0.44,-0.16,0.56,-2.45,-0.63
-0.88,-0.44,-0.17,0.49,-2.31,-1.12
-0.87,-0.44,-0.17,0.14,-2.1,-1.54
-0.88,-0.44,-0.16,0.14,-2.17,-1.4
-0.88,-0.44,-0.16,0.49,-2.17,-1.12
-0.88,-0.44,-0.15,0.28,-1.96,-1.33
-0.89,-0.44,-0.15,0.7,-2.31,-1.05
-0.89,-0.43,-0.14,0.35,-2.03,-0.84
-0.9,-0.43,-0.14,0.91,-2.17,-0.56
-0.89,-0.44,-0.15,0.77,-2.73,-0.28
-0.89,-0.44,-0.16,0.21,-2.59,-0.21
-0.89,-0.43,-0.16,-0.14,-2.52,-0.28
-0.89,-0.43,-0.15,0.07,-2.66,-0.42
-0.88,-0.44,-0.16,0.28,-2.94,-0.28
-0.88,-0.44,-0.16,0.14,-2.8,-0.49
-0.88,-0.44,-0.16,-0.28,-2.45,-0.77
-0.88,-0.44,-0.15,0,-2.38,-0.98
-0.89,-0.44,-0.15,-0.07,-2.59,-0.77
-0.89,-0.44,-0.16,-0.14,-2.59,-0.77
-0.88,-0.44,-0.16,-0.42,-2.66,-1.05
-0.88,-0.45,-0.15,-0.42,-2.94,-1.05
-0.88,-0.45,-0.15,-0.77,-2.87,-0.84
-0.88,-0.45,-0.15,-0.7,-2.52,-0.91
-0.88,-0.44,-0.15,-0.49,-2.38,-0.84
-0.88,-0.44,-0.16,-0.28,-2.31,-0.77
-0.89,-0.44,-0.16,0.21,-2.45,-0.7
-0.89,-0.44,-0.16,1.12,-2.31,-0.42
-0.88,-0.44,-0.16,0.84,-2.03,-0.63
-0.88,-0.44,-0.15,0.84,-2.1,-0.56
-0.88,-0.44,-0.15,0.84,-1.89,-0.63
-0.88,-0.45,-0.16,0.63,-1.89,-0.63
-0.89,-0.44,-0.15,0.77,-2.17,-0.56
-0.89,-0.44,-0.16,0.63,-2.24,-0.56
-0.89,-0.44,-0.16,0.63,-2.31,-0.63
-0.89,-0.44,-0.16,0.49,-2.38,-0.77
-0.88,-0.44,-0.16,0.84,-2.52,-0.7
-0.88,-0.44,-0.16,0.42,-2.24,-0.7
-0.88,-0.44,-0.15,0.63,-1.96,-0.77
-0.89,-0.44,-0.15,0.84,-2.1,-0.49
-0.88,-0.44,-0.16,0.56,-1.82,-0.84
-0.88,-0.44,-0.16,0.84,-1.82,-0.7
-0.89,-0.44,-0.16,0.98,-2.1,-0.77
-0.89,-0.44,-0.15,0.7,-2.1,-0.77
-0.89,-0.44,-0.15,0.28,-2.1,-0.84
-0.89,-0.44,-0.15,0.49,-2.31,-0.77
-0.88,-0.44,-0.16,0.63,-2.31,-0.98
-0.88,-0.44,-0.16,0.35,-2.24,-0.84
-0.88,-0.44,-0.16,0.28,-2.1,-0.84
-0.88,-0.44,-0.16,0.77,-2.17,-0.7
-0.89,-0.44,-0.16,0.98,-2.03,-0.63
-0.89,-0.44,-0.15,0.84,-1.75,-1.05
-0.88,-0.43,-0.15,1.19,-2.1,-0.77
-0.89,-0.43,-0.15,1.05,-1.96,-0.77
-0.89,-0.44,-0.15,1.12,-1.89,-0.63
-0.89,-0.43,-0.15,1.12,-1.96,-0.98
-0.89,-0.43,-0.16,0.77,-1.96,-0.84
-0.89,-0.43,-0.15,0.49,-2.03,-0.84
-0.89,-0.43,-0.15,0.14,-2.24,-0.7
-0.89,-0.43,-0.16,0.07,-2.38,-0.7
-0.89,-0.43,-0.16,0,-2.59,-0.84
-0.89,-0.43,-0.16,-0.28,-2.59,-0.91
-0.89,-0.43,-0.15,-0.35,-2.73,-1.05
-0.89,-0.44,-0.15,-0.28,-2.94,-0.84
-0.89,-0.44,-0.15,-0.42,-2.73,-1.05
-0.88,-0.44,-0.16,-0.42,-2.8,-0.98
-0.88,-0.44,-0.16,-0.63,-2.73,-1.05
-0.88,-0.44,-0.15,-0.42,-2.73,-0.84
-0.88,-0.45,-0.16,-0.21,-2.59,-1.19
-0.88,-0.45,-0.16,0.07,-2.38,-1.26
-0.88,-0.44,-0.16,0,-2.45,-1.19
-0.88,-0.44,-0.16,-0.14,-2.66,-1.19
-0.88,-0.44,-0.15,-0.49,-2.52,-1.33
-0.88,-0.45,-0.16,-0.42,-2.52,-1.19
-0.89,-0.45,-0.15,0,-2.31,-1.12
-0.89,-0.45,-0.15,0.28,-2.45,-1.12
-0.89,-0.44,-0.16,0.28,-2.31,-1.4
-0.88,-0.44,-0.16,0.63,-2.17,-1.05
-0.88,-0.44,-0.16,0.49,-2.38,-1.12
-0.88,-0.44,-0.16,0.21,-2.38,-1.05
-0.89,-0.43,-0.16,-0.14,-2.45,-1.19
-0.89,-0.43,-0.15,-0.07,-2.66,-0.98
-0.89,-0.44,-0.14,-0.14,-2.87,-0.91
-0.89,-0.44,-0.15,-0.28,-2.52,-0.7
-0.89,-0.44,-0.15,-0.56,-2.66,-0.84
-0.89,-0.44,-0.15,-0.35,-2.8,-0.84
-0.89,-0.44,-0.16,-0.35,-2.8,-1.12
-0.88,-0.44,-0.16,-0.21,-2.8,-0.84
-0.88,-0.44,-0.16,-0.42,-2.73,-1.19
-0.87,-0.45,-0.16,-0.42,-2.66,-1.19
-0.88,-0.44,-0.16,17.85,-2.8,-0.77
-0.88,-0.44,-0.15,0.14,-2.45,-1.19
-0.89,-0.44,-0.15,0.49,-2.52,-1.05
-0.89,-0.44,-0.14,0.21,-2.31,-0.98
-0.89,-0.44,-0.15,0.35,-2.24,-0.91
-0.89,-0.44,-0.15,0.63,-2.31,-0.77
-0.89,-0.44,-0.15,0.28,-2.38,-0.84
-0.89,-0.44,-0.15,0.07,-2.66,-0.56
-0.88,-0.44,-0.16,-0.35,-2.73,-0.56
-0.88,-0.44,-0.16,-0.42,-2.87,-0.63
-0.88,-0.45,-0.16,-0.42,-2.31,-1.19
-0.88,-0.45,-0.16,-0.42,-2.45,-1.4
-0.88,-0.44,-0.16,0.14,-2.45,-1.54
-0.88,-0.44,-0.16,0.28,-2.38,-1.54
-0.88,-0.44,-0.16,0.63,-2.31,-1.54
-0.89,-0.44,-0.15,0.49,-2.24,-1.61
-0.89,-0.43,-0.15,0.42,-2.24,-1.12
-0.89,-0.44,-0.15,0.21,-2.59,-0.91
-0.89,-0.44,-0.15,0.14,-2.66,-0.63
-0.89,-0.44,-0.14,-0.21,-2.66,-0.42
-0.89,-0.44,-0.15,0.07,-2.59,-0.49
-0.88,-0.44,-0.16,0.07,-2.52,-0.56
-0.88,-0.45,-0.16,0,-2.38,-0.98
-0.87,-0.45,-0.16,0.07,-2.03,-1.26
-0.88,-0.45,-0.16,0.63,-2.31,-1.47
-0.88,-0.45,-0.16,0.77,-1.89,-1.26
-0.88,-0.45,-0.15,0.7,-1.82,-1.4
-0.89,-0.44,-0.15,1.19,-1.82,-1.4
-0.89,-0.44,-0.15,0.77,-2.1,-1.33
-0.89,-0.44,-0.15,0.14,-2.03,-1.33
-0.89,-0.44,-0.15,0.21,-2.38,-0.98
-0.89,-0.44,-0.15,-0.21,-2.45,-0.98
-0.89,-0.44,-0.15,0.21,-2.38,-0.91
-0.89,-0.44,-0.15,0.28,-2.1,-0.91
-0.88,-0.44,-0.15,0.42,-2.31,-0.7
-0.88,-0.44,-0.16,0.84,-2.31,-0.7
-0.88,-0.44,-0.16,0.77,-2.38,-0.98
-0.88,-0.44,-0.16,0.28,-2.17,-1.19
-0.88,-0.44,-0.16,0.21,-2.38,-1.12
-0.88,-0.44,-0.16,0.21,-2.24,-1.12
-0.88,-0.44,-0.15,0.21,-2.38,-1.26
-0.88,-0.44,-0.15,0.35,-2.31,-1.19
-0.88,-0.44,-0.15,0.14,-2.45,-1.4
-0.89,-0.45,-0.15,-0.14,-2.24,-1.19
-0.89,-0.45,-0.14,0.07,-2.24,-1.12
-0.89,-0.45,-0.14,0.21,-2.38,-1.05
-0.88,-0.44,-0.15,0.42,-2.38,-0.77
-0.88,-0.44,-0.16,0.49,-2.24,-0.77
-0.88,-0.44,-0.16,0.42,-2.17,-0.98
-0.88,-0.44,-0.16,0.49,-2.24,-0.98
-0.88,-0.43,-0.16,0.63,-2.17,-1.19
-0.89,-0.44,-0.15,0.77,-2.1,-1.12
-0.88,-0.44,-0.15,0.28,-2.1,-1.19
-0.88,-0.44,-0.16,0.14,-2.31,-1.33
-0.88,-0.45,-0.15,-0.28,-2.38,-1.47
-0.88,-0.45,-0.15,-0.56,-2.31,-1.4
-0.88,-0.45,-0.15,-0.42,-2.73,-1.26
-0.88,-0.45,-0.15,-0.42,-2.52,-1.33
-0.88,-0.45,-0.15,-0.28,-2.31,-1.26
-0.88,-0.45,-0.16,0.07,-2.45,-1.19
-0.88,-0.45,-0.15,-0.07,-2.17,-1.19
-0.88,-0.45,-0.16,0.63,-2.17,-1.05
-0.88,-0.45,-0.16,0.77,-2.1,-1.26
-0.88,-0.45,-0.16,0.84,-2.1,-1.33
-0.87,-0.46,-0.17,0,-1.82,-1.4
-0.87,-0.45,-0.15,0.42,-1.75,-1.54
-0.88,-0.45,-0.15,0.7,-1.82,-1.82
-0.88,-0.44,-0.15,0.7,-1.89,-1.54
-0.88,-0.44,-0.15,0.63,-1.82,-1.68
-0.89,-0.44,-0.15,0.49,-2.03,-1.47
-0.89,-0.44,-0.15,0.49,-2.17,-1.33
-0.88,-0.44,-0.15,0.49,-2.45,-1.19
-0.88,-0.45,-0.16,-0.42,-2.03,-1.33
-0.88,-0.44,-0.15,-0.42,-2.1,-1.26
-0.88,-0.44,-0.15,0.21,-2.24,-0.84
-0.89,-0.44,-0.16,0.56,-1.96,-0.84
-0.89,-0.44,-0.15,0.63,-2.17,-0.56
-0.89,-0.44,-0.15,0.84,-2.31,-0.35
-0.89,-0.43,-0.15,0.56,-2.17,-0.42
-0.88,-0.44,-0.15,0,-2.45,-0.49
-0.89,-0.44,-0.15,-0.07,-2.8,-0.14
-0.89,-0.44,-0.15,-0.28,-2.66,-0.28
-0.89,-0.44,-0.15,-0.35,-2.66,-0.28
-0.88,-0.45,-0.15,-0.49,-2.59,-0.35
-0.88,-0.45,-0.16,-0.63,-2.45,-0.7
-0.88,-0.45,-0.16,-0.35,-2.66,-0.84
-0.88,-0.45,-0.16,-0.49,-2.52,-1.19
-0.88,-0.45,-0.16,-0.49,-2.38,-1.33
-0.88,-0.45,-0.16,-0.35,-2.52,-1.19
-0.88,-0.45,-0.16,-0.56,-2.59,-1.19
-0.88,-0.45,-0.15,-0.56,-2.52,-1.19
-0.88,-0.44,-0.15,0.14,-2.45,-0.63
-0.89,-0.45,-0.15,0.07,-2.24,-0.56
-0.89,-0.45,-0.15,0.14,-2.17,-0.49
-0.88,-0.45,-0.15,0.21,-2.24,-0.7
-0.88,-0.45,-0.16,0.63,-2.38,-0.7
-0.88,-0.44,-0.16,0.42,-2.03,-0.7
-0.88,-0.44,-0.15,0.14,-2.31,-0.7
-0.89,-0.44,-0.15,0.21,-2.59,-0.63
-0.89,-0.44,-0.16,-0.28,-2.38,-0.63
-0.89,-0.44,-0.16,-0.42,-2.38,-0.77
-0.89,-0.44,-0.16,-0.28,-2.45,-0.84
-0.89,-0.44,-0.16,-0.21,-2.52,-0.7
-0.88,-0.45,-0.16,-0.49,-2.38,-0.91
-0.88,-0.45,-0.16,-0.42,-2.31,-1.05
-0.88,-0.44,-0.16,0,-2.31,-1.19
-0.88,-0.45,-0.16,0.14,-2.45,-1.19
-0.88,-0.45,-0.16,-0.07,-2.45,-1.26
-0.87,-0.45,-0.15,-0.14,-2.38,-1.05
-0.88,-0.45,-0.15,-0.07,-2.38,-0.91
-0.89,-0.45,-0.15,0,-2.24,-0.63
-0.89,-0.44,-0.15,0.91,-1.96,-0.49
-0.89,-0.43,-0.16,1.05,-2.17,-0.28
-0.89,-0.44,-0.16,0.63,-2.24,-0.28
-0.89,-0.44,-0.16,0.28,-2.17,-0.35
-0.89,-0.44,-0.15,0.28,-2.52,-0.63
-0.88,-0.44,-0.16,0.35,-2.73,-0.42
-0.88,-0.44,-0.16,0,-2.66,-0.84
-0.88,-0.44,-0.16,0.07,-2.66,-0.91
-0.88,-0.45,-0.16,-0.07,-2.59,-0.98
-0.88,-0.45,-0.16,-0.28,-2.31,-1.19
-0.88,-0.44,-0.15,-0.21,-2.24,-0.98
-0.89,-0.44,-0.15,0.7,-2.31,-0.63
-0.89,-0.44,-0.15,0.56,-2.31,-0.84
-0.88,-0.44,-0.16,0.77,-2.38,-0.77
-0.89,-0.44,-0.15,0.77,-2.31,-0.63
-0.88,-0.44,-0.15,0.98,-2.38,-0.49
-0.88,-0.45,-0.15,0.7,-2.1,-0.56
-0.88,-0.45,-0.15,0.63,-2.24,-0.77
-0.88,-0.45,-0.16,0.35,-2.38,-0.98
-0.88,-0.45,-0.17,-0.07,-2.1,-1.4
-0.88,-0.44,-0.16,0.42,-2.24,-1.33
-0.88,-0.44,-0.16,0.35,-2.24,-1.47
-0.88,-0.44,-0.16,0.56,-2.31,-1.47
-0.88,-0.44,-0.15,0.63,-1.89,-1.54
-0.88,-0.44,-0.15,0.56,-2.03,-1.68
-0.88,-0.45,-0.15,0.7,-2.03,-1.4
-0.88,-0.45,-0.16,0.49,-1.82,-1.47
-0.88,-0.45,-0.16,0.35,-2.1,-1.47
-0.88,-0.45,-0.15,0.42,-2.24,-1.4
-0.88,-0.45,-0.15,0.63,-2.1,-1.26
-0.88,-0.44,-0.15,0.84,-2.03,-0.98
-0.88,-0.44,-0.15,0.63,-2.17,-0.98
-0.88,-0.44,-0.15,0.7,-2.03,-1.19
-0.88,-0.44,-0.15,0.84,-2.24,-1.05
-0.88,-0.44,-0.15,0.7,-2.03,-1.19
-0.88,-0.44,-0.16,0.7,-2.38,-1.05
-0.88,-0.44,-0.16,0.49,-2.17,-1.05
-0.88,-0.44,-0.15,0.63,-2.38,-0.7
-0.89,-0.43,-0.15,0.7,-2.38,-0.77
-0.89,-0.44,-0.16,0.42,-2.45,-0.77
-0.89,-0.44,-0.16,0.42,-2.52,-0.91
-0.88,-0.44,-0.15,0.21,-2.59,-0.77
-0.88,-0.44,-0.15,0,-2.52,-0.91
-0.88,-0.44,-0.15,0.21,-2.59,-0.84
-0.88,-0.45,-0.16,0.28,-2.52,-1.05
-0.87,-0.46,-0.16,0.35,-2.38,-0.91
-0.87,-0.46,-0.16,0.49,-2.24,-1.12
-0.88,-0.45,-0.16,0.84,-2.24,-1.19
-0.88,-0.45,-0.16,0.84,-2.03,-1.12
-0.88,-0.45,-0.15,1.61,-2.03,-0.84
-0.88,-0.45,-0.15,1.47,-1.89,-0.84
-0.88,-0.45,-0.15,1.05,-1.96,-0.49
-0.89,-0.44,-0.15,0.77,-1.82,-0.56
-0.89,-0.43,-0.14,1.12,-2.03,-0.21
-0.89,-0.44,-0.15,1.54,-2.45,0.07
-0.88,-0.45,-0.16,1.05,-2.31,0.07
-0.88,-0.45,-0.16,0.7,-2.17,-0.42
-0.88,-0.45,-0.16,0.56,-2.45,-0.21
-0.88,-0.45,-0.16,0.35,-2.45,-0.63
-0.88,-0.45,-0.16,0.56,-2.17,-0.98
-0.88,-0.45,-0.16,0.91,-1.96,-1.19
-0.88,-0.45,-0.16,1.19,-1.96,-1.4
-0.88,-0.44,-0.16,1.05,-1.96,-1.4
-0.88,-0.45,-0.16,0.63,-1.82,-1.61
-0.89,-0.44,-0.15,0.7,-2.17,-1.54
-0.89,-0.44,-0.15,0.28,-2.59,-1.19
-0.88,-0.45,-0.15,17.71,-2.31,-1.4
-0.88,-0.45,-0.15,0,-2.45,-1.19
-0.88,-0.45,-0.15,0,-2.52,-1.26
-0.88,-0.45,-0.15,0.35,-2.45,-0.91
-0.88,-0.45,-0.16,0.7,-2.03,-0.91
-0.88,-0.45,-0.16,0.84,-2.03,-0.91
-0.88,-0.45,-0.16,0.98,-2.1,-0.98
-0.88,-0.45,-0.16,0.84,-1.89,-1.19
-0.88,-0.45,-0.16,0.63,-1.96,-1.4
-0.88,-0.45,-0.16,0.63,-2.17,-1.68
-0.88,-0.45,-0.15,0.28,-2.17,-1.96
-0.88,-0.44,-0.15,0.21,-2.17,-2.03
-0.88,-0.45,-0.15,0.35,-2.38,-1.68
-0.88,-0.45,-0.16,-0.07,-2.52,-1.75
-0.88,-0.45,-0.15,-0.21,-2.45,-1.47
-0.89,-0.44,-0.14,0.42,-2.31,-0.98
-0.89,-0.44,-0.14,0.49,-2.17,-0.63
-0.89,-0.44,-0.15,0.77,-1.89,-0.56
-0.88,-0.45,-0.16,1.05,-1.96,-0.07
-0.88,-0.45,-0.16,1.05,-2.03,0
-0.89,-0.44,-0.16,1.05,-2.24,-0.35
-0.89,-0.44,-0.15,1.12,-2.45,-0.28
-0.88,-0.44,-0.16,0.56,-2.38,-0.63
-0.88,-0.44,-0.16,0.42,-2.59,-0.77
-0.88,-0.45,-0.16,-0.14,-2.8,-0.98
-0.88,-0.45,-0.15,-0.49,-2.52,-1.19
-0.88,-0.45,-0.15,-0.28,-2.66,-1.05
-0.88,-0.45,-0.15,-0.28,-2.45,-0.91
-0.88,-0.45,-0.16,-0.07,-2.52,-1.05
-0.88,-0.45,-0.16,-0.07,-2.59,-0.7
-0.88,-0.45,-0.15,0.07,-2.38,-0.49
-0.89,-0.45,-0.15,0.7,-2.17,-0.49
-0.88,-0.45,-0.15,0.84,-2.24,-0.35
-0.88,-0.45,-0.16,0.7,-2.17,-0.42
-0.88,-0.45,-0.15,0.56,-2.24,-0.42
-0.88,-0.45,-0.15,0.35,-2.38,-0.56
-0.88,-0.45,-0.15,0.42,-2.45,-0.91
-0.88,-0.44,-0.16,0.28,-2.31,-0.84
-0.88,-0.45,-0.16,-17.78,-2.31,-1.12
-0.88,-0.46,-0.16,-0.28,-2.45,-0.98
-0.88,-0.45,-0.16,-0.42,-2.45,-1.12
-0.88,-0.45,-0.16,-0.14,-2.38,-0.84
-0.89,-0.44,-0.15,-0.07,-2.59,-0.7
-0.89,-0.44,-0.15,-0.14,-2.38,-0.63
-0.89,-0.44,-0.15,-0.28,-2.87,-0.42
-0.89,-0.44,-0.15,-0.49,-2.8,-0.42
-0.89,-0.45,-0.15,-0.7,-2.59,-0.63
-0.88,-0.45,-0.15,-0.42,-2.8,-0.77
-0.88,-0.45,-0.16,-0.56,-2.73,-0.98
-0.87,-0.45,-0.16,-0.7,-2.59,-0.84
-0.87,-0.46,-0.16,-0.63,-2.45,-1.19
-0.88,-0.45,-0.16,-0.28,-2.52,-1.05
-0.88,-0.45,-0.15,-0.28,-2.59,-0.98
-0.89,-0.44,-0.16,-0.07,-2.45,-1.05
-0.88,-0.44,-0.15,0.07,-2.45,-0.84
-0.88,-0.45,-0.15,0.28,-2.59,-0.42
-0.88,-0.45,-0.15,0.21,-2.52,-0.42
-0.89,-0.45,-0.15,0.14,-2.66,-0.35
-0.88,-0.45,-0.15,0.07,-2.59,-0.42
-0.88,-0.44,-0.15,0.28,-2.45,-0.7
-0.89,-0.44,-0.15,0.14,-2.45,-0.63
-0.88,-0.44,-0.15,-0.28,-2.59,-0.63
-0.89,-0.43,-0.15,-0.84,-2.66,-0.84
-0.89,-0.44,-0.15,-0.7,-2.66,-0.98
-0.89,-0.44,-0.15,-0.7,-2.8,-0.7
-0.88,-0.45,-0.16,-1.19,-2.52,-0.91
-0.88,-0.45,-0.16,-0.77,-2.73,-0.84
-0.88,-0.45,-0.16,-0.91,-2.66,-1.12
-0.88,-0.44,-0.16,-0.42,-2.73,-1.05
-0.88,-0.45,-0.16,-0.42,-2.59,-0.98
-0.88,-0.45,-0.15,-0.42,-2.45,-1.05
-0.88,-0.45,-0.15,-0.21,-2.59,-0.91
-0.88,-0.45,-0.16,-0.14,-2.45,-0.7
-0.88,-0.45,-0.15,-0.14,-2.24,-0.56
-0.88,-0.44,-0.15,0.35,-2.38,-0.56
-0.88,-0.45,-0.15,0.28,-2.38,-0.35
-0.88,-0.45,-0.15,0.21,-2.38,-0.49
-0.88,-0.45,-0.15,0.21,-2.1,-0.56
-0.89,-0.45,-0.15,0.77,-2.17,-0.42
-0.88,-0.45,-0.16,0.28,-2.03,-0.84
-0.88,-0.44,-0.16,0.7,-2.24,-0.7
-0.88,-0.45,-0.17,-0.35,-2.38,-0.77
-0.88,-0.45,-0.16,-0.63,-2.31,-0.91
-0.88,-0.44,-0.15,0.07,-2.52,-0.84
-0.88,-0.45,-0.15,0.07,-2.59,-0.98
-0.88,-0.45,-0.16,0.14,-2.45,-0.84
-0.88,-0.45,-0.16,0.14,-2.24,-0.7
-0.88,-0.45,-0.15,-0.21,-2.45,-0.7
-0.88,-0.45,-0.15,0,-2.24,-0.56
-0.89,-0.45,-0.15,0.49,-2.17,-0.21
-0.88,-0.45,-0.15,0.56,-2.24,0
-0.88,-0.45,-0.16,0.42,-2.31,-0.35
-0.88,-0.44,-0.16,0.28,-2.31,-0.42
-0.88,-0.44,-0.16,-0.21,-2.45,-0.63
-0.88,-0.45,-0.16,-0.28,-2.52,-0.63
-0.88,-0.45,-0.16,-0.07,-2.73,-0.7
-0.88,-0.45,-0.16,0,-2.87,-0.98
-0.88,-0.45,-0.16,-0.14,-2.8,-0.7
-0.88,-0.45,-0.16,-0.49,-2.8,-0.84
-0.88,-0.45,-0.15,-0.21,-2.52,-0.91
-0.88,-0.45,-0.15,0.14,-2.45,-0.7
-0.88,-0.45,-0.15,0.14,-2.38,-0.91
-0.88,-0.45,-0.16,0,-2.24,-0.98
-0.88,-0.45,-0.16,0.35,-2.17,-0.84
-0.88,-0.44,-0.15,0.49,-2.59,-0.56
-0.88,-0.44,-0.16,0.14,-2.52,-0.7
-0.88,-0.44,-0.16,0,-2.73,-0.63
-0.89,-0.44,-0.16,-0.07,-2.73,-0.7
-0.89,-0.44,-0.15,0.21,-2.52,-0.7
-0.89,-0.44,-0.15,0.07,-2.8,-0.56
-0.88,-0.45,-0.15,0.21,-2.87,-0.63
-0.88,-0.45,-0.15,0.21,-2.59,-0.56
-0.88,-0.45,-0.15,0.42,-2.59,-0.63
-0.88,-0.45,-0.15,0.63,-2.31,-0.7
-0.88,-0.45,-0.15,0.49,-2.31,-0.77
-0.88,-0.45,-0.16,0.35,-2.31,-0.84
-0.88,-0.45,-0.15,0.42,-2.24,-1.12
-0.88,-0.44,-0.15,0.21,-2.38,-0.91
-0.89,-0.45,-0.15,0.42,-2.1,-0.91
-0.88,-0.45,-0.15,0.63,-2.31,-0.49
-0.88,-0.44,-0.15,0.63,-2.31,-0.42
-0.88,-0.44,-0.15,0.42,-2.1,-0.35
-0.89,-0.44,-0.15,0.91,-2.38,-0.42
-0.88,-0.44,-0.15,0.7,-2.45,-0.07
-0.89,-0.45,-0.15,0.49,-2.24,-0.35
-0.88,-0.45,-0.15,0.49,-2.31,-0.49
-0.88,-0.45,-0.15,0,-2.24,-0.63
-0.88,-0.44,-0.15,0.07,-2.17,-0.63
-0.88,-0.44,-0.15,-0.28,-2.1,-0.84
-0.88,-0.44,-0.16,0.14,-2.38,-0.7
-0.88,-0.44,-0.16,0.42,-2.45,-0.56
-0.89,-0.44,-0.16,0.14,-2.52,-0.56
-0.88,-0.44,-0.15,0.28,-2.59,-0.35
-0.88,-0.44,-0.15,17.85,-2.66,-0.14
-0.89,-0.44,-0.15,0.07,-2.38,-0.07
-0.88,-0.44,-0.15,0.42,-2.59,-0.07
-0.88,-0.45,-0.16,0.63,-2.66,-0.35
-0.88,-0.45,-0.16,-17.92,-2.24,-0.63
-0.88,-0.46,-0.15,-0.07,-2.31,-0.84
-0.88,-0.45,-0.15,0.28,-2.38,-0.77
-0.88,-0.45,-0.16,0.28,-2.1,-0.77
-0.88,-0.45,-0.16,0.63,-2.1,-0.77
-0.88,-0.45,-0.16,0.77,-2.38,-0.56
-0.88,-0.44,-0.16,0.07,-2.1,-0.84
-0.89,-0.44,-0.15,0,-2.17,-0.77
-0.89,-0.44,-0.15,0.35,-2.45,-0.63
-0.89,-0.44,-0.15,0.21,-2.31,-0.63
-0.89,-0.44,-0.16,0.14,-2.45,-0.49
-0.88,-0.44,-0.16,-0.07,-2.8,-0.7
-0.89,-0.44,-0.16,-0.56,-2.73,-0.77
-0.88,-0.44,-0.15,-0.63,-2.59,-0.84
-0.89,-0.44,-0.15,-0.56,-2.8,-0.63
-0.88,-0.45,-0.15,-0.7,-2.73,-0.77
-0.88,-0.44,-0.16,-0.91,-2.59,-0.98
-0.88,-0.44,-0.16,-0.63,-2.66,-0.7
-0.88,-0.44,-0.16,-0.56,-2.52,-1.05
-0.88,-0.44,-0.16,-0.7,-2.73,-0.84
-0.88,-0.45,-0.16,-0.7,-2.73,-1.05
-0.88,-0.45,-0.16,-0.63,-2.66,-1.19
-0.88,-0.44,-0.15,-0.49,-2.94,-1.12
-0.88,-0.45,-0.15,-0.14,-3.15,-0.98
-0.88,-0.44,-0.15,-0.35,-2.8,-0.7
-0.88,-0.44,-0.15,0,-2.66,-0.56
-0.88,-0.44,-0.15,0,-2.66,-0.28
-0.88,-0.44,-0.16,-0.56,-2.38,-0.63
-0.88,-0.44,-0.16,-0.28,-2.45,-0.35
-0.89,-0.44,-0.16,-0.28,-2.31,-0.63
-0.88,-0.45,-0.15,0.35,-2.73,-0.91
-0.88,-0.45,-0.16,-0.49,-2.94,-1.33
-0.88,-0.44,-0.15,-0.77,-2.94,-1.12
-0.88,-0.45,-0.15,-0.91,-2.94,-1.33
-0.88,-0.45,-0.15,-0.7,-2.8,-1.12
-0.88,-0.44,-0.15,-0.77,-2.94,-0.84
-0.88,-0.45,-0.15,-0.7,-2.87,-0.63
-0.89,-0.44,-0.15,-0.84,-2.8,-0.7
-0.89,-0.44,-0.15,-0.14,-2.59,-0.63
-0.89,-0.44,-0.15,0.21,-2.59,-0.56
-0.88,-0.45,-0.16,0.77,-2.31,-0.56
-0.88,-0.44,-0.16,0.63,-2.52,-0.7
-0.88,-0.45,-0.16,0.07,-2.38,-0.77
-0.88,-0.44,-0.15,0.21,-2.38,-0.7
-0.89,-0.44,-0.15,0.14,-2.24,-0.77
-0.88,-0.44,-0.16,0.28,-2.24,-0.91
-0.88,-0.45,-0.16,0.07,-2.1,-0.91
-0.88,-0.44,-0.15,0.28,-2.24,-0.91
-0.89,-0.44,-0.15,0.56,-2.38,-0.77
-0.89,-0.44,-0.15,0.21,-2.38,-0.84
-0.89,-0.44,-0.15,0.49,-2.45,-0.56
-0.89,-0.44,-0.15,0.42,-2.38,-0.49
-0.89,-0.44,-0.15,0.56,-2.45,-0.35
-0.88,-0.44,-0.15,0.35,-2.38,-0.49
-0.88,-0.44,-0.15,0.35,-2.31,-0.56
-0.88,-0.44,-0.15,0.56,-2.52,-0.49
-0.89,-0.44,-0.16,0.49,-2.38,-0.49
-0.89,-0.44,-0.15,0.63,-2.45,-0.77
-0.88,-0.44,-0.15,0.63,-2.52,-0.7
-0.88,-0.45,-0.15,-0.07,-2.38,-0.91
-0.88,-0.44,-0.15,-0.21,-2.52,-1.05
-0.89,-0.45,-0.15,-0.21,-2.59,-0.77
-0.89,-0.45,-0.15,-0.07,-2.52,-0.63
-0.89,-0.45,-0.15,0.07,-2.31,-0.77
-0.88,-0.45,-0.15,0.49,-2.45,-0.42
-0.88,-0.45,-0.16,0,-2.52,-0.56
-0.88,-0.45,-0.15,-0.14,-2.24,-0.63
-0.89,-0.44,-0.15,0.49,-2.24,-0.35
-0.89,-0.44,-0.15,0.91,-2.38,-0.49
-0.88,-0.45,-0.16,0.91,-2.24,-0.56
-0.88,-0.45,-0.16,0.28,-2.17,-0.42
-0.88,-0.45,-0.16,0.56,-2.17,-0.35
-0.88,-0.45,-0.15,0.21,-2.17,-0.56
-0.89,-0.44,-0.15,0,-2.17,-0.77
-0.88,-0.44,-0.16,0.7,-2.38,-0.91
-0.88,-0.44,-0.16,0,-2.38,-0.84
-0.88,-0.45,-0.16,0,-2.17,-0.91
-0.88,-0.44,-0.15,0.63,-2.31,-0.77
-0.88,-0.44,-0.15,0.7,-2.38,-0.56
-0.89,-0.44,-0.15,0.21,-2.31,-0.42
-0.89,-0.44,-0.15,0.14,-2.31,-0.35
-0.89,-0.44,-0.15,0.21,-2.45,-0.14
-0.89,-0.44,-0.15,0.14,-2.31,-0.35
-0.89,-0.44,-0.15,0.28,-2.45,-0.21
-0.88,-0.44,-0.16,0,-2.45,-0.42
-0.88,-0.44,-0.16,0.42,-2.87,-0.14
-0.88,-0.44,-0.16,-0.49,-2.52,-0.63
-0.88,-0.44,-0.16,-0.21,-2.52,-0.63
-0.88,-0.44,-0.15,-0.07,-2.38,-0.77
-0.88,-0.44,-0.15,0.42,-2.38,-0.84
-0.88,-0.45,-0.16,0.14,-2.59,-0.84
-0.88,-0.44,-0.15,0.07,-2.52,-0.56
-0.89,-0.44,-0.15,-0.42,-2.45,-0.77
-0.89,-0.44,-0.15,-0.21,-2.52,-0.63
-0.89,-0.44,-0.15,0.07,-2.52,-0.49
-0.89,-0.44,-0.15,0.28,-2.38,-0.42
-0.89,-0.44,-0.15,-0.14,-2.31,-0.35
-0.89,-0.44,-0.15,0.49,-2.59,-0.28
-0.88,-0.44,-0.16,0.14,-2.45,-0.63
-0.88,-0.44,-0.16,-0.14,-2.24,-0.77
-0.88,-0.44,-0.15,0.28,-2.52,-0.84
-0.88,-0.45,-0.15,0.07,-2.52,-0.98
-0.88,-0.44,-0.16,0.07,-2.52,-0.84
