Accel_x,Accel_y,Accel_z,Gyr_x,Gyr_y,Gyr_z
-1.22,-0.04,0.21,-38.01,3.99,-54.53
-1.06,-0.05,0.16,-29.19,37.17,-73.36
-1.05,-0.05,0.08,-27.58,68.04,-84.35
-1.23,-0.2,-0.01,4.06,89.88,-70
-0.94,-0.61,-0.1,66.57,94.08,-15.54
-0.38,-0.79,-0.39,108.22,54.11,12.95
0.03,-1.14,-0.49,132.86,48.86,-11.97
0,-1.5,-0.45,165.9,123.06,-64.61
-0.46,-1.47,-0.43,126.91,124.6,-75.95
-1.14,-1.18,-0.32,45.5,66.57,-45.64
-1.32,-0.71,-0.11,6.65,23.03,-32.27
-1.23,-0.41,0.1,-10.99,19.74,-25.83
-1.4,-0.04,-0.08,3.99,27.93,-35.21
-1.42,-0.1,-0.07,4.83,37.45,-31.92
-1.25,0,-0.14,3.15,65.66,-33.88
-1.12,0.09,-0.27,19.81,63,-48.23
-0.97,0.19,-0.33,41.51,61.6,-63.77
-0.88,0.07,-0.47,54.88,56.49,-70.7
-0.88,-0.05,-0.48,67.76,49.77,-74.06
-0.96,-0.26,-0.48,75.25,36.4,-76.16
-1,-0.41,-0.37,65.24,22.89,-76.02
-0.97,-0.44,-0.22,49.14,13.51,-73.5
-0.96,-0.47,-0.11,37.59,10.43,-72.03
-0.96,-0.33,-0.01,43.75,8.68,-70.63
-0.98,-0.22,0.01,48.37,12.46,-71.75
-1,-0.13,-0.05,48.02,14.42,-72.8
-1,-0.12,-0.1,51.8,20.44,-72.59
-1,-0.1,-0.11,48.3,22.19,-74.34
-1,-0.09,-0.1,41.44,19.46,-75.53
-0.99,-0.1,-0.11,32.69,14.7,-75.46
-0.95,-0.1,-0.09,25.62,12.53,-74.27
-0.93,-0.09,-0.09,18.62,11.97,-73.01
-0.91,-0.08,-0.08,10.85,11.06,-70
-0.89,-0.15,-0.11,4.83,11.83,-67.69
-0.9,-0.21,-0.11,4.97,18.06,-66.71
-0.95,-0.24,-0.12,1.96,20.93,-64.96
-0.94,-0.28,-0.1,1.12,22.68,-64.19
-0.94,-0.29,-0.11,0.91,20.72,-63.28
-0.93,-0.27,-0.08,6.93,20.58,-62.37
-0.92,-0.23,-0.09,9.31,17.01,-60.27
-0.9,-0.18,-0.09,7,13.23,-57.82
-0.88,-0.14,-0.1,5.81,9.94,-54.46
-0.91,-0.09,-0.08,1.68,8.61,-52.36
-0.95,-0.09,-0.06,1.47,8.12,-50.68
-1.01,-0.13,-0.06,5.67,10.15,-49.49
-1.05,-0.18,-0.08,10.5,13.23,-47.74
-1.09,-0.18,-0.1,13.37,14.56,-43.61
-1.15,-0.17,-0.11,17.85,15.12,-39.83
-1.18,-0.14,-0.06,29.4,14.63,-36.4
-1.18,-0.09,-0.01,46.06,11.55,-32.27
-1.17,-0.06,0.02,55.23,5.81,-25.83
-1.16,-0.02,0.04,63.7,-2.17,-17.43
-1.14,0.08,0.05,70.07,-12.46,-5.53
-1.12,0.22,0.07,72.24,-21.77,5.18
-1.13,0.31,0.08,67.97,-34.58,15.96
-1.16,0.38,0.09,64.19,-43.12,24.78
-1.24,0.45,0.09,64.96,-48.93,34.16
-1.36,0.53,0.12,68.88,-46.76,44.87
-1.51,0.6,0.14,72.45,-46.97,57.26
-1.65,0.59,0.13,73.92,-54.25,71.96
-1.69,0.44,0.1,73.92,-63.14,78.68
-1.62,0.22,-0.01,60.76,-66.85,86.59
-1.46,0.04,-0.21,32.62,-75.11,94.5
-1.18,-0.19,-0.36,4.69,-84.63,100.31
-0.94,-0.47,-0.36,10.08,-73.36,104.3
-0.83,-0.71,-0.39,14.98,-55.3,100.66
-0.86,-0.95,-0.5,12.67,-33.32,95.9
-1.02,-0.96,-0.64,-1.33,-21.07,92.75
-1.22,-0.88,-0.61,-20.16,-27.16,89.18
-1.3,-0.78,-0.49,-28.21,-46.41,85.89
-1.28,-0.76,-0.22,-35.91,-57.26,86.03
-1.09,-0.7,0.19,-33.81,-33.32,79.52
-1.08,-0.51,0.18,-32.9,-10.92,72.1
-1.09,-0.35,0.05,-28.84,1.68,70.07
-1.06,-0.34,-0.1,-21.42,-0.49,70.84
-0.95,-0.46,-0.19,-15.96,-8.75,72.17
-0.92,-0.58,-0.24,-7.35,-18.34,72.45
-0.8,-0.64,-0.11,-5.04,-22.26,76.44
-0.86,-0.71,-0.03,3.64,-15.05,75.74
-0.82,-0.66,-0.05,11.62,-22.54,80.71
-0.74,-0.56,0.02,-1.05,-22.12,82.39
-0.77,-0.51,0.05,3.99,-22.61,83.58
-0.78,-0.46,0.04,1.47,-23.45,83.86
-0.76,-0.39,0.08,-5.25,-20.02,80.08
-0.76,-0.34,0.1,-11.9,-17.99,73.5
-0.76,-0.32,0.08,-20.16,-20.23,69.72
-0.74,-0.33,0.05,-27.51,-22.89,67.34
-0.73,-0.34,0.04,-25.83,-20.72,63.84
-0.78,-0.32,0.02,-19.53,-13.09,56.49
-0.85,-0.31,-0.01,-20.51,-14.28,44.52
-0.83,-0.33,0,-25.97,-16.73,35.07
-0.78,-0.32,0,-33.18,-16.17,28.28
-0.74,-0.33,0.06,-33.53,-12.11,25.97
-0.71,-0.16,0,-40.04,-4.76,26.18
-0.71,-0.18,-0.03,-44.52,2.24,26.32
-0.77,-0.2,-0.02,-42.56,3.01,26.74
-0.81,-0.2,0.01,-40.25,1.4,26.53
-0.87,-0.18,0.04,-41.09,-0.84,29.12
-0.91,-0.15,0.05,-45.08,-4.48,27.09
-0.9,-0.2,0.09,-51.1,-6.65,17.85
-0.88,-0.3,0.16,-49.35,-8.75,8.82
-0.83,-0.25,0.21,-55.44,-1.89,4.83
-0.92,-0.04,0.19,-42.7,1.82,1.54
-0.96,0.1,0.16,-39.76,-3.36,-1.19
-0.96,0.18,0.15,-30.1,-5.32,1.12
-0.95,0.24,0.15,-17.15,-4.69,6.51
-0.94,0.25,0.16,-11.55,-1.54,13.3
-0.96,0.23,0.19,-12.11,-1.19,14.63
-0.95,0.2,0.18,-13.72,1.19,14.21
-0.95,0.19,0.15,-1.12,8.61,12.67
-1.03,0.25,0.17,-0.28,11.76,12.53
-1.08,0.29,0.21,-7.56,11.48,13.16
-1.09,0.3,0.19,-11.48,10.15,14.77
-1.06,0.29,0.12,-13.09,10.78,13.65
-1.03,0.27,0.07,-13.02,12.74,9.8
-1.01,0.24,0.07,-13.44,15.68,4.2
-1.01,0.19,0.09,-18.76,18.48,0.21
-0.99,0.14,0.08,-27.3,19.11,-3.29
-0.97,0.13,0.08,-37.38,21.14,-6.37
-0.95,0.14,0.04,-43.96,24.15,-11.2
-0.99,0.03,0.07,-40.39,24.22,-19.53
-1.23,-0.07,0.17,-39.83,11.34,-29.05
-1.41,-0.18,0.36,-42.77,-3.36,-32.48
-1.5,-0.14,0.51,-41.93,-18.69,-27.93
-1.37,-0.1,0.47,-46.62,-20.51,-23.73
-1.23,-0.14,0.12,-31.43,-4.06,-26.11
-1.17,-0.02,0.03,-22.12,13.16,-37.52
-1.12,0,-0.05,-13.86,35.84,-43.12
-1.13,-0.02,-0.08,0.56,63.14,-46.97
-1.1,-0.13,-0.11,18.48,79.66,-44.52
-0.93,-0.29,-0.15,50.33,75.46,-32.48
-0.68,-0.46,-0.22,74.48,67.83,-18.2
-0.52,-0.61,-0.34,83.37,47.67,-12.53
-0.47,-0.77,-0.25,67.69,28.98,-16.31
-0.61,-0.83,-0.15,35,4.97,-21.7
-0.95,-0.75,0.12,-4.06,2.52,-17.08
-1.12,-0.46,0.34,-19.74,9.38,-23.24
-1.11,-0.26,0.37,-1.75,30.52,-22.96
-1.23,0.01,0.2,27.72,40.46,-24.92
-1.21,0.18,-0.03,40.04,46.69,-25.69
-1.1,0.26,-0.3,37.52,45.92,-27.02
-0.88,0.27,-0.46,25.9,40.39,-29.33
-0.95,0.22,-0.54,10.78,26.04,-31.92
-0.85,0.05,-0.49,-1.75,21.35,-35.98
-0.81,-0.13,-0.35,1.54,28.49,-38.64
-0.95,-0.22,-0.18,-0.91,24.01,-43.05
-1.08,-0.31,-0.1,-5.25,12.39,-45.64
-1.04,-0.34,-0.06,-8.05,3.64,-50.54
-1,-0.33,-0.01,-9.94,5.53,-51.73
-0.98,-0.27,-0.01,-10.43,6.58,-52.57
-0.98,-0.19,-0.05,-4.83,4.34,-54.04
-0.99,-0.2,-0.1,1.75,6.3,-53.55
-1.03,-0.21,-0.16,2.1,1.82,-52.36
-1.02,-0.27,-0.16,5.53,1.4,-53.27
-0.98,-0.32,-0.14,10.22,7.98,-52.36
-0.96,-0.34,-0.1,14.07,9.52,-53.2
-0.93,-0.31,-0.05,19.39,13.02,-56.91
-0.92,-0.2,-0.04,16.31,11.55,-61.53
-0.92,-0.29,-0.01,18.41,11.9,-54.32
-0.93,-0.23,0,16.1,10.64,-52.43
-0.96,-0.2,-0.03,6.58,7.21,-47.39
-0.97,-0.17,-0.06,5.11,9.1,-45.57
-1.01,-0.14,-0.05,7.7,10.15,-45.78
-1.01,-0.13,-0.04,7.28,11.27,-47.32
-1.03,-0.07,-0.05,2.66,6.16,-41.65
-1,-0.06,-0.05,8.4,1.19,-45.71
-0.88,-0.1,-0.05,5.95,12.88,-45.64
-0.92,-0.09,-0.06,-0.35,11.76,-45.57
-0.92,-0.14,-0.06,-3.5,8.12,-46.27
-0.91,-0.19,-0.05,-6.37,11.13,-48.51
-0.94,-0.17,-0.07,-9.94,11.06,-50.68
-0.96,-0.14,-0.07,-10.5,8.4,-49.91
-0.99,-0.14,-0.06,-12.25,7.63,-49.7
-1,-0.13,-0.05,-13.02,7.42,-48.09
-1.01,-0.12,-0.05,-10.5,7.49,-45.78
-1.03,-0.11,-0.06,-5.88,7.98,-42.84
-1.06,-0.1,-0.05,2.66,8.4,-38.71
-1.09,-0.08,-0.06,9.17,6.65,-34.09
-1.09,-0.07,-0.03,17.15,6.23,-28.98
-1.09,-0.06,-0.01,24.85,3.36,-23.73
-1.08,-0.02,0.02,28.77,-0.07,-16.31
-1.04,-0.01,0.05,35.7,-1.89,-10.85
-1.04,-0.01,0.08,45.01,-4.2,-6.51
-1.05,-0.03,0.15,53.9,-7.28,-1.75
-1.07,-0.07,0.18,59.15,-9.24,3.85
-1.1,-0.07,0.19,66.92,-12.95,10.01
-1.18,-0.03,0.2,72.24,-17.29,20.23
-1.23,0.1,0.21,74.34,-24.71,29.54
-1.23,0.24,0.21,76.65,-33.74,40.11
-1.24,0.36,0.19,79.45,-34.65,52.57
-1.25,0.46,0.14,77.42,-34.09,68.46
-1.34,0.52,0.06,69.58,-37.45,87.85
-1.4,0.49,-0.07,61.67,-39.06,107.94
-1.47,0.35,-0.26,51.52,-36.33,127.4
-1.5,0.03,-0.47,31.57,-33.25,132.44
-1.39,-0.41,-0.69,-3.15,-25.62,131.88
-1.3,-0.81,-0.76,-14.21,-22.61,127.05
-1.23,-1.04,-0.74,9.45,-23.31,124.18
-1.2,-1.04,-0.63,35.63,-29.75,118.86
-1.21,-0.81,-0.47,46.34,-40.39,107.1
-1.15,-0.42,-0.15,32.55,-40.04,82.95
-0.98,-0.29,0.13,12.81,-27.44,64.54
-0.83,-0.38,0.28,9.31,-7.77,48.23
-0.89,-0.31,0.31,11.76,-4.97,45.99
-1.01,-0.33,0.16,14,2.94,42.7
-1.08,-0.32,0.01,-3.29,-6.44,45.29
-0.99,-0.52,-0.03,16.52,-11.13,51.03
-0.98,-0.5,0.08,14.21,-21.98,57.96
-0.82,-0.51,0.14,19.39,-24.36,64.61
-0.77,-0.48,0.13,23.59,-24.92,67.83
-0.75,-0.49,0.08,22.75,-28.98,69.65
-0.68,-0.49,0.05,24.92,-31.01,70.63
-0.72,-0.35,0.12,17.64,-32.48,68.53
-0.71,-0.34,0.13,17.29,-29.61,63
-0.74,-0.29,0.12,12.74,-27.58,55.86
-0.77,-0.28,0.11,7.56,-27.72,46.9
-0.74,-0.27,0.09,0.07,-27.37,36.47
-0.71,-0.25,0.07,-1.82,-24.71,27.58
-0.8,-0.14,-0.09,9.24,-18.76,20.86
-0.68,-0.29,0.02,0.98,-17.01,18.76
-0.72,-0.37,0.05,1.26,-15.19,11.06
-0.68,-0.4,0.01,-1.68,-9.31,7.98
-0.7,-0.4,0.01,-1.96,-3.22,3.15
-0.72,-0.39,0,3.01,0.7,-2.31
-0.8,-0.41,-0.06,16.31,1.89,-13.44
-0.72,-0.24,0,13.93,3.08,-22.89
-0.69,-0.23,0.02,10.15,9.52,-24.22
-0.88,0,-0.03,1.12,0.91,-30.17
-0.86,-0.09,0.02,-2.52,-1.75,-32.9
-0.88,-0.03,0.05,6.37,2.87,-25.62
-0.93,0.06,0.07,11.55,-1.68,-23.24
-0.97,0.05,0.07,9.73,-6.72,-21.35
-1,0.06,0.14,6.02,-11.2,-16.52
-1.02,0.15,0.17,-2.94,-11.55,-11.83
-1.06,0.2,0.25,-12.6,-9.73,-9.87
-1.1,0.3,0.31,-15.05,-7.7,-9.24
-1.17,0.41,0.35,-14.14,-7.07,-10.5
-1.25,0.52,0.35,-12.04,-10.22,-11.13
-1.26,0.64,0.25,-11.2,-7.21,-8.68
-1.26,0.73,0.38,4.9,3.5,-0.56
-1.32,0.71,0.38,14.63,1.47,4.48
-1.34,0.69,0.28,17.01,2.1,5.81
-1.32,0.64,0.14,7.84,3.36,9.87
-1.26,0.5,0.07,-3.22,3.57,13.86
-1.13,0.31,0.11,0.63,8.47,15.19
-1.02,0.13,0.08,3.22,14.35,9.73
-0.99,-0.11,0.04,-0.07,18.97,-0.98
-1.04,-0.38,0.05,-3.92,22.96,-14.56
-1.16,-0.46,0.16,-3.99,18.9,-14.63
-1.2,-0.29,0.27,-2.45,13.16,-4.06
-1.19,-0.04,0.26,-17.5,2.87,9.45
-1.22,0,0.02,-19.74,-2.59,12.74
-1.2,0,-0.15,-19.95,-0.98,7.28
-1.12,-0.03,-0.09,-20.79,7.77,-6.51
-1,-0.11,0.01,-14.7,24.78,-20.23
-0.83,-0.23,-0.02,3.85,41.51,-34.09
-0.7,-0.37,-0.1,22.47,40.6,-38.15
-0.6,-0.57,-0.18,45.08,34.3,-27.58
-0.51,-0.72,-0.21,66.43,27.16,-15.33
-0.51,-0.79,-0.23,89.11,27.72,-19.95
-0.6,-0.92,-0.19,109.9,49.49,-36.68
-0.88,-0.78,0,88.55,54.88,-41.58
-1.25,-0.56,0.15,45.43,40.74,-38.29
-1.28,-0.37,0.17,28.98,31.71,-36.26
-1.21,-0.18,0.13,35.63,34.23,-38.29
-1.32,0.06,-0.31,42.14,11.97,-48.44
-1.57,0.47,-0.44,-8.68,-63,-81.13
-0.82,0.04,-0.33,-2.1,-20.3,-56.91
-0.71,-0.04,-0.37,16.38,15.26,-49.63
-0.88,-0.07,-0.36,22.19,19.46,-50.75
-0.91,-0.18,-0.2,-10.22,17.36,-50.47
-0.92,-0.29,-0.17,-37.45,19.04,-48.79
-0.93,-0.42,-0.02,-51.1,21.14,-49.84
-0.97,-0.47,0.06,-44.17,21.07,-53.69
-0.95,-0.41,0.09,-17.22,19.81,-55.37
-0.92,-0.35,0.07,11.83,21.35,-57.12
-0.94,-0.26,-0.02,31.29,24.57,-56.28
-1,-0.22,-0.05,37.94,25.2,-55.93
-0.99,-0.2,-0.12,34.58,24.85,-55.09
-1,-0.2,-0.1,27.65,20.65,-53.97
-1,-0.19,-0.1,25.55,20.02,-53.13
-1,-0.16,-0.09,22.61,16.38,-52.01
-1.01,-0.13,-0.1,17.64,11.76,-50.82
-0.97,-0.12,-0.1,11.76,8.82,-50.75
-0.92,-0.15,-0.07,12.25,9.59,-50.82
-0.9,-0.1,-0.02,13.23,12.88,-50.12
-0.91,-0.1,-0.05,12.81,13.72,-49.49
-0.92,-0.16,-0.07,14.91,15.12,-49.28
-0.93,-0.21,-0.06,17.29,17.36,-48.37
-0.93,-0.23,-0.06,18.13,17.57,-48.02
-0.94,-0.23,-0.08,18.69,16.38,-48.09
-0.92,-0.18,-0.07,14.63,15.61,-46.9
-0.9,-0.17,-0.08,9.59,14.28,-45.43
-0.92,-0.14,-0.08,5.11,13.44,-44.66
-0.96,-0.14,-0.09,-1.47,11.2,-43.96
-1,-0.16,-0.1,-7,7.42,-44.03
-1.03,-0.18,-0.09,-11.97,3.36,-45.71
-1.02,-0.17,-0.06,-16.03,2.1,-48.37
-1,-0.16,-0.06,-19.11,3.15,-50.4
-0.99,-0.17,-0.06,-20.93,6.23,-51.87
-0.96,-0.18,-0.08,-20.3,10.36,-54.39
-0.94,-0.18,-0.09,-17.29,14.77,-56.42
-0.95,-0.18,-0.1,-12.95,19.46,-57.05
-1,-0.18,-0.1,-6.02,22.12,-55.79
-1.06,-0.15,-0.1,-0.7,21.14,-52.5
-1.11,-0.12,-0.12,1.89,13.37,-46.76
-1.13,-0.05,-0.09,1.96,4.34,-39.2
-1.1,0,-0.02,3.29,1.82,-30.31
-1.07,0.04,0.07,10.92,0.84,-20.72
-1.08,0.05,0.16,23.38,-4.06,-12.6
-1.12,0.04,0.19,35.7,-10.36,-0.7
-1.12,0,0.28,53.06,-23.24,7.56
-1.16,0.07,0.39,70.21,-11.2,17.43
-1.25,0.05,-0.05,-1.26,-25.34,-1.47
-1.29,0.12,0.21,1.82,-26.53,7.07
-1.38,0.19,0.42,18.13,-38.99,13.72
-1.46,0.23,0.56,49.42,-54.46,28.14
-1.42,0.31,0.52,86.17,-57.75,42.49
-1.42,0.38,0.39,101.08,-58.66,55.65
-1.38,0.36,0.16,81.34,-57.05,67.9
-1.35,0.25,-0.04,52.5,-58.1,81.69
-1.28,0.13,-0.16,35.21,-58.17,95.55
-1.18,0.08,-0.28,18.83,-49.56,109.06
-1.11,-0.17,-0.43,2.24,-44.73,112.84
-1.16,-0.45,-0.53,-22.12,-54.39,115.57
-1.07,-0.69,-0.5,-18.06,-51.17,119
-1.08,-0.81,-0.59,-3.43,-39.83,117.67
-1.18,-0.72,-0.71,-3.92,-33.88,116.27
-1.16,-0.62,-0.67,-23.8,-40.67,117.53
-1.19,-0.64,-0.51,-37.52,-40.39,117.11
-1.2,-0.76,-0.38,-26.18,-37.66,105.07
-1.02,-0.72,-0.3,-15.68,-33.74,101.57
-1.03,-0.57,-0.27,-2.38,-25.48,104.65
-1.12,-0.56,-0.25,11.34,-25.27,106.61
-1.04,-0.67,-0.23,19.11,-29.33,108.57
-0.9,-0.73,-0.22,17.01,-31.15,113.75
-0.84,-0.69,-0.19,10.64,-30.31,122.15
-0.78,-0.58,-0.13,8.33,-31.15,123.2
-0.83,-0.51,-0.08,3.78,-33.39,119.56
-0.81,-0.48,-0.06,-3.15,-37.17,113.61
-0.75,-0.47,-0.08,-8.75,-41.58,108.15
-0.68,-0.5,-0.13,-10.85,-45.08,102.9
-0.65,-0.49,-0.14,-13.65,-47.88,97.09
-0.66,-0.49,-0.16,-19.81,-49.49,91.56
-0.66,-0.51,-0.14,-28.28,-49.63,85.68
-0.61,-0.56,-0.13,-35.28,-46.48,78.12
-0.6,-0.57,-0.15,-44.59,-43.33,67.27
-0.59,-0.6,-0.2,-50.61,-38.08,56
-0.66,-0.58,-0.18,-55.23,-31.15,43.75
-0.73,-0.42,-0.12,-56.28,-24.15,25.69
-0.6,-0.42,-0.27,-60.69,-28.56,14.63
-0.35,-0.56,-0.27,-50.12,-27.58,16.38
-0.39,-0.53,-0.26,-31.29,-10.01,11.41
-0.41,-0.53,-0.19,-23.31,-8.47,7
-0.5,-0.55,-0.1,-13.65,-2.52,10.85
-0.67,-0.47,-0.05,3.36,-0.14,18.34
-0.79,-0.22,0.01,9.38,-3.36,24.92
-0.92,-0.13,0.01,2.38,-6.23,24.43
-1.04,-0.08,0.15,-1.33,-1.54,23.1
-1.12,0.13,0.35,-11.2,8.61,25.41
-1.3,0.38,0.51,-13.93,8.68,20.23
-1.4,0.66,0.53,-13.3,-9.17,14.49
-1.45,0.91,0.55,-12.11,-22.54,10.5
-1.42,1.13,0.57,1.75,-21.35,12.32
-1.4,1.38,0.54,13.44,-12.6,18.9
-1.4,1.42,0.4,15.33,-11.13,24.15
-1.3,1.14,0.24,14.14,-10.78,26.32
-1.2,0.72,0.09,9.45,-8.19,27.44
-1.09,0.36,0.01,2.1,-8.54,27.3
-0.97,-0.08,-0.02,-6.16,-11.9,22.12
-0.87,-0.25,-0.03,-20.37,-8.68,13.16
-0.77,-0.46,-0.12,-36.26,5.04,-4.9
-0.75,-0.66,-0.16,-48.86,23.52,-27.44
-0.94,-0.73,-0.06,-55.37,28.56,-43.89
-1.14,-0.68,0.13,-48.16,20.02,-28.63
-1.18,-0.19,0.25,-40.88,10.22,-18.9
-1.2,0.08,0.35,-17.85,4.97,-21.07
-1.15,0.03,0.29,1.47,20.44,-32.48
-1.15,-0.03,0.28,8.12,56.77,-52.08
-1.14,-0.1,0.27,9.66,80.71,-61.32
-1,-0.25,0.12,23.8,90.16,-51.66
-0.88,-0.41,-0.23,50.26,81.9,-32.69
-0.68,-0.69,-0.61,90.3,74.2,-0.49
-0.46,-0.9,-0.72,149.24,93.1,-23.31
-0.46,-0.89,-0.79,170.38,108.08,-39.83
-0.73,-0.79,-0.74,133.77,92.47,-64.19
-1.1,-0.77,-0.38,90.02,88.48,-61.25
-1.47,-0.5,-0.25,67.55,59.36,-39.69
-1.34,-0.04,-0.2,26.25,20.02,-36.75
-1.02,0.1,-0.33,0.56,9.66,-51.66
-0.94,0.06,-0.39,-10.15,15.4,-62.65
-1.11,-0.01,-0.44,0.98,28.63,-68.95
-1.08,-0.12,-0.4,6.37,30.31,-73.99
-1.06,-0.2,-0.37,16.52,27.79,-81.2
-0.99,-0.22,-0.34,24.99,26.67,-88.2
-0.93,-0.25,-0.35,29.47,20.65,-93.66
-0.89,-0.3,-0.32,35.56,14.63,-97.58
-0.91,-0.33,-0.3,38.29,10.22,-98.28
-0.99,-0.36,-0.28,43.26,3.08,-97.02
-1.1,-0.3,-0.21,43.47,-3.08,-93.03
-1.17,-0.26,-0.29,33.74,-15.75,-80.15
-1.13,-0.18,-0.3,10.85,-24.15,-67.83
-1.08,-0.13,-0.28,-18.48,-23.8,-61.6
-0.97,-0.13,-0.2,-31.5,-14,-60.27
-0.91,-0.14,-0.13,-37.94,16.17,-57.96
-0.82,-0.21,-0.1,-35.7,12.39,-56.14
-0.74,-0.35,-0.07,-26.6,18.55,-51.87
-0.77,-0.46,-0.01,-18.48,22.26,-46.83
-0.83,-0.54,0.09,-4.27,23.87,-47.39
-0.95,-0.49,0.13,13.72,18.41,-49.49
-0.91,-0.37,0.09,37.59,14,-52.78
-0.72,-0.28,0,55.09,11.83,-52.71
-0.48,-0.19,-0.13,49,17.78,-54.46
-0.78,-0.08,-0.19,40.95,33.74,-57.54
-0.87,-0.11,-0.19,33.67,26.04,-55.09
-0.98,-0.13,-0.27,16.1,18.06,-55.79
-1.15,-0.14,-0.26,9.24,21.56,-56.35
-1.23,-0.13,-0.24,3.92,15.68,-56.98
-1.14,-0.14,-0.21,0.42,7.98,-59.64
-1.01,-0.13,-0.14,0.77,10.01,-62.02
-1.02,-0.15,-0.04,3.29,16.66,-62.51
-0.99,-0.15,0.01,9.17,13.65,-61.04
-0.97,-0.14,-0.04,11.76,12.53,-58.03
-0.95,-0.1,-0.07,16.66,12.95,-51.38
-1.02,-0.07,-0.09,17.5,12.39,-43.68
-1.11,-0.04,-0.04,21.98,11.06,-35.07
-1.12,-0.03,-0.03,29.4,3.15,-27.44
-1.1,-0.01,-0.07,30.87,-3.99,-21.28
-1.12,0.04,-0.11,30.45,-6.86,-16.94
-1.12,0.05,-0.12,27.44,-10.64,-13.93
-1.1,-0.02,-0.13,25.34,-12.6,-12.25
-1.1,-0.1,-0.12,24.5,-14,-8.61
-1.19,-0.19,-0.08,24.71,-16.24,-1.75
-1.28,-0.22,0.05,31.43,-21.84,4.69
-1.4,-0.13,0.23,46.34,-31.08,10.43
-1.43,0,0.4,70.35,-37.03,15.82
-1.42,0.19,0.4,93.45,-37.45,26.25
-1.4,0.39,0.31,105.77,-38.08,37.8
-1.35,0.52,0.19,106.19,-41.3,54.88
-1.31,0.65,0.07,90.93,-43.47,74.9
-1.32,0.68,-0.08,51.66,-46.2,91.91
-1.35,0.58,-0.36,3.08,-47.6,108.15
-1.34,0.34,-0.3,-27.37,-58.1,120.4
-1.31,-0.16,-0.28,-16.31,-60.2,130.34
-1.26,-0.58,-0.4,-5.11,-59.36,126.49
-1.19,-0.92,-0.56,5.39,-36.26,113.33
-1.22,-1.06,-0.59,-0.49,-14.63,98.35
-1.1,-1.11,-0.6,-10.99,-19.04,97.16
-0.93,-0.94,-0.54,-3.92,-26.18,97.72
-0.89,-0.69,-0.5,-8.19,-28,93.73
-0.94,-0.51,-0.42,-24.57,-25.41,83.44
-1.02,-0.49,-0.36,-31.92,-24.01,73.43
-1.11,-0.36,-0.22,-25.13,-25.9,71.96
-1.09,-0.31,-0.03,-17.99,-22.96,72.73
-1.08,-0.34,0.01,-12.46,-23.59,77.84
-1,-0.49,-0.04,-5.25,-28.35,82.95
-0.89,-0.61,-0.02,1.47,-28.63,90.86
-0.77,-0.72,-0.01,8.12,-26.53,99.26
-0.7,-0.72,-0.03,12.39,-24.08,106.68
-0.7,-0.67,-0.06,10.22,-24.57,111.3
-0.73,-0.59,-0.08,7.07,-26.88,115.08
-0.73,-0.5,-0.1,8.26,-28.42,116.27
-0.73,-0.37,-0.06,7.42,-27.23,114.87
-0.7,-0.25,-0.03,3.64,-25.69,109.62
-0.73,-0.18,-0.04,-1.96,-29.4,102.06
-0.74,-0.19,-0.08,-4.13,-29.68,91.21
-0.72,-0.22,-0.08,-4.69,-30.38,77.07
-0.75,-0.26,-0.06,-12.11,-25.97,62.37
-0.78,-0.32,-0.02,-19.53,-19.95,48.3
-0.78,-0.36,0.05,-30.59,-14.84,35.56
-0.79,-0.36,0.08,-43.68,-9.66,20.79
-0.77,-0.32,0.05,-49.63,-2.03,11.34
-0.77,-0.26,0.02,-49.98,4.48,4.76
-0.74,-0.26,0,-45.78,6.79,-1.54
-0.72,-0.29,0.01,-39.69,9.94,-7
-0.73,-0.3,0.03,-33.74,12.53,-8.75
-0.78,-0.25,0.09,-26.32,11.97,-6.79
-0.72,-0.11,0.16,-20.79,7.63,-3.01
-0.78,0.03,0.04,-19.46,11.13,3.29
-0.77,0.06,0.07,-17.71,6.65,9.17
-0.84,0.11,0.15,-15.05,3.08,12.67
-0.98,0.26,0.27,-12.46,-4.55,15.89
-1.09,0.41,0.37,-15.89,-3.29,16.17
-1.22,0.71,0.38,-20.02,-4.27,15.68
-1.32,0.77,0.37,-23.94,-10.29,16.17
-1.46,0.89,0.29,-26.11,-25.83,17.85
-1.35,0.94,0.3,-25.13,-29.47,15.54
-1.31,0.96,0.26,-23.52,-29.68,13.93
-1.28,0.93,0.19,-25.41,-26.6,10.57
-1.23,0.78,0.13,-32.2,-21.84,8.12
-1.14,0.49,0.09,-43.89,-17.99,4.34
-1.04,0.24,0.04,-59.15,-15.26,-2.38
-0.89,-0.01,-0.03,-71.68,-12.32,-12.88
-0.74,-0.25,-0.1,-80.78,-7.49,-25.9
-0.66,-0.49,-0.19,-82.67,-2.45,-41.02
-0.6,-0.69,-0.28,-81.97,3.57,-58.52
-0.55,-0.86,-0.23,-66.57,22.96,-72.94
-0.61,-0.84,-0.14,-35.21,43.89,-90.02
-0.83,-0.73,0.03,-1.33,50.05,-84.77
-1.24,-0.47,0.22,28.42,40.39,-65.59
-1.43,-0.33,0.31,31.92,30.73,-38.71
-1.48,-0.32,0.3,24.92,36.68,-13.51
-1.53,-0.27,0.25,21.56,57.19,-4.48
-1.61,-0.24,0.26,29.61,83.37,-11.97
-1.58,-0.24,0.23,61.25,112.84,-24.08
-1.22,-0.38,0.11,104.23,141.75,-28.49
-0.81,-0.55,-0.29,161.21,130.62,-29.19
-0.49,-0.55,-0.53,231.07,100.03,-26.81
-0.38,-0.56,-0.47,210.7,79.1,-28.7
-0.53,-0.66,-0.62,141.19,58.03,-42.21
-0.66,-0.78,-0.66,58.17,44.1,-52.36
-0.78,-0.41,-0.57,-9.52,31.57,-56.35
-0.85,-0.28,-0.44,-33.6,28.42,-55.72
-1.01,-0.18,-0.33,-37.59,28.14,-56.63
-1.12,-0.11,-0.31,-36.47,22.82,-57.96
-1.2,0.01,-0.34,-38.99,14.42,-59.64
-1.14,0.05,-0.37,-42.56,10.64,-67.06
-1.11,-0.01,-0.35,-24.92,7.77,-74.06
-1.05,-0.07,-0.31,-1.33,8.12,-79.17
-1.03,-0.14,-0.27,18.69,7.07,-81.41
-1.05,-0.14,-0.21,21.63,3.64,-79.52
-1.02,-0.23,-0.27,26.18,-1.12,-74.55
-0.95,-0.19,-0.28,20.37,-9.66,-70.84
-0.8,-0.2,-0.27,6.86,-14.98,-68.67
-0.65,-0.26,-0.19,-3.71,-8.47,-67.06
-0.66,-0.28,-0.13,-14.91,3.92,-63.91
-0.81,-0.31,-0.09,-21.28,6.72,-62.23
-0.89,-0.37,-0.03,-12.39,6.86,-61.04
-0.97,-0.32,0.01,-4.83,5.74,-59.64
-0.99,-0.23,0.02,2.38,10.22,-57.4
-0.99,-0.15,-0.02,6.23,14.35,-55.65
-0.99,-0.13,-0.1,10.15,16.73,-54.46
-1,-0.15,-0.14,6.93,19.53,-55.58
-0.99,-0.2,-0.21,6.23,17.99,-56.84
-0.96,-0.25,-0.26,3.85,18.13,-58.1
-0.92,-0.31,-0.28,1.75,18.62,-59.64
-0.91,-0.32,-0.28,-1.61,17.99,-63.28
-0.89,-0.33,-0.28,-5.67,14.56,-66.78
-0.87,-0.32,-0.29,-13.09,10.43,-70.14
-0.83,-0.32,-0.29,-26.53,6.09,-70.7
-0.82,-0.31,-0.27,-31.15,10.71,-73.5
-0.86,-0.28,-0.24,-35.28,11.69,-76.86
-0.91,-0.29,-0.25,-37.03,11.27,-79.38
-0.97,-0.29,-0.25,-36.61,8.68,-80.43
-0.99,-0.21,-0.21,-38.71,5.6,-79.03
-1.02,-0.11,-0.17,-42.21,-2.03,-73.71
-1.04,-0.01,-0.09,-43.05,-3.08,-68.39
-1.1,0.08,-0.02,-35.14,0.7,-60.62
-1.19,0.07,0.01,-24.78,0.91,-52.64
-1.17,-0.04,0.04,-12.32,9.31,-42.84
-1.17,-0.11,-0.02,-0.21,9.94,-34.65
-1.16,-0.21,-0.07,10.01,9.45,-25.55
-1.15,-0.24,-0.09,13.58,6.02,-21.07
-1.11,-0.25,-0.13,13.65,1.68,-15.4
-1.08,-0.2,-0.2,13.51,-4.2,-9.94
-1.17,-0.21,-0.17,15.75,-18.97,-3.78
-1.2,-0.14,-0.02,22.47,-28.7,1.61
-1.25,-0.09,0.13,50.82,-31.71,9.24
-1.34,0.01,0.26,55.3,-33.88,17.71
-1.4,0.14,0.35,73.15,-41.37,26.46
-1.39,0.23,0.37,86.38,-51.38,35.56
-1.35,0.33,0.35,96.04,-55.72,46.48
-1.32,0.35,0.26,97.37,-54.81,54.67
-1.32,0.34,0.12,84,-50.47,64.26
-1.34,0.32,-0.05,49.63,-48.72,77.21
-1.32,0.28,-0.25,16.24,-51.24,91.77
-1.3,0.28,-0.49,-28.49,-66.64,102.9
-1.18,0.1,-0.51,-60.55,-77.63,111.51
-1.05,-0.25,-0.49,-52.22,-65.59,121.66
-1.04,-0.59,-0.6,-30.1,-34.37,115.57
-1.15,-0.86,-0.71,-35.28,-16.52,107.52
-1.18,-1.05,-0.81,-42.42,-21.42,104.72
-1.17,-0.95,-0.71,-42.77,-30.45,103.81
-1.1,-0.85,-0.63,-28.14,-32.83,100.73
-1.09,-0.72,-0.61,-13.23,-34.72,87.99
-1.01,-0.67,-0.58,-10.43,-38.29,80.57
-0.93,-0.44,-0.45,-24.01,-36.61,80.15
-0.94,-0.26,-0.3,-36.19,-35.21,80.36
-0.96,-0.29,-0.16,-23.59,-31.71,83.79
-0.97,-0.38,-0.11,-25.13,-33.04,85.75
-0.88,-0.51,-0.13,-29.12,-32.83,88.2
-0.78,-0.59,-0.16,-29.33,-29.96,92.89
-0.76,-0.61,-0.16,-29.68,-31.29,95.97
-0.72,-0.61,-0.13,-27.58,-35.98,95.2
-0.67,-0.57,-0.1,-27.86,-38.15,93.1
-0.68,-0.51,-0.1,-26.46,-37.52,90.16
-0.71,-0.48,-0.13,-25.62,-36.61,86.8
-0.73,-0.47,-0.14,-28.21,-38.92,83.65
-0.74,-0.47,-0.1,-32.97,-41.79,80.29
-0.71,-0.46,-0.06,-37.87,-45.22,76.44
-0.68,-0.46,-0.06,-40.6,-44.87,70.35
-0.66,-0.46,-0.11,-42.7,-44.66,62.93
-0.65,-0.45,-0.1,-45.43,-44.38,53.2
-0.63,-0.48,-0.08,-43.89,-45.99,45.71
-0.63,-0.51,-0.07,-41.72,-49.35,38.92
-0.61,-0.5,-0.05,-40.18,-44.52,32.34
-0.61,-0.51,-0.01,-38.08,-27.72,21.14
-0.69,-0.46,0.04,-30.94,-14.63,16.38
-0.7,-0.39,0.02,-31.57,-4.69,6.51
-0.75,-0.4,0.01,-22.61,4.69,2.1
-0.89,-0.3,-0.06,-10.22,4.83,1.33
-0.81,-0.16,0.03,-4.55,13.09,12.67
-0.83,-0.13,0.09,11.62,20.79,19.95
-0.83,0.08,0.12,7.7,17.36,13.72
-0.97,0.15,0.11,1.47,11.55,14.84
-0.89,0.26,0.38,-0.7,22.19,14.63
-1.01,0.5,0.35,0.7,16.45,12.04
-1.21,0.63,0.42,-3.85,4.48,16.17
-1.38,0.74,0.48,-2.66,-7.42,19.74
-1.43,0.84,0.49,0.49,-13.02,20.51
-1.43,0.95,0.45,5.6,-13.65,19.25
-1.4,1.01,0.28,0.35,-12.95,16.17
-1.28,0.94,0.21,-5.67,-6.93,12.32
-1.21,0.72,0.1,-10.5,-2.8,12.95
-1.1,0.5,0.07,-18.62,-1.89,10.64
-0.96,0.19,0,-30.31,-1.61,4.69
-0.83,-0.01,-0.08,-45.22,4.83,-6.51
-0.75,-0.3,-0.16,-60.9,12.32,-23.38
-0.84,-0.61,-0.16,-75.81,16.59,-43.75
-1.15,-0.78,0.09,-75.25,7.07,-53.41
-1.42,-0.53,0.34,-63.21,-6.72,-38.85
-1.42,-0.04,0.33,-49.63,-12.11,-12.6
-1.2,-0.13,0.31,-28,-4.13,-13.09
-1.08,-0.11,0.19,-16.52,26.74,-26.6
-1.08,-0.04,0.13,-12.39,54.53,-49.28
-1.06,-0.1,0.1,-6.86,82.81,-68.39
-1.02,-0.31,0.01,19.04,108.22,-70.7
-0.78,-0.6,-0.16,62.02,122.57,-54.39
-0.54,-0.76,-0.37,122.99,119,-44.52
-0.34,-0.99,-0.58,154.42,118.02,-42.91
-0.4,-1.12,-0.57,174.79,98.35,-44.1
-0.76,-1.08,-0.32,103.67,79.66,-52.71
-1.12,-0.98,-0.22,19.74,47.67,-45.22
-1.17,-0.59,-0.07,-20.93,32.06,-45.92
-1.12,-0.3,0,-16.45,47.53,-45.99
-1.13,-0.07,-0.07,7.35,55.65,-47.46
-1.02,0,-0.3,14.63,58.38,-50.68
-0.93,0,-0.6,13.65,64.96,-58.52
-1.01,-0.01,-0.73,14.98,52.01,-65.31
-1,-0.03,-0.73,14.42,34.93,-68.74
-0.92,-0.08,-0.6,16.38,17.29,-73.08
-0.89,-0.19,-0.41,23.73,15.12,-74.48
-0.96,-0.25,-0.23,24.08,9.31,-76.65
-1.01,-0.36,-0.11,22.89,2.87,-77.77
-1.01,-0.41,-0.12,20.58,2.24,-77.7
-0.98,-0.36,-0.16,25.27,2.45,-74.55
-0.95,-0.2,-0.19,18.34,2.87,-70.98
-0.86,-0.16,-0.19,15.89,6.3,-69.58
-0.83,-0.14,-0.18,12.6,8.75,-68.81
-0.87,-0.14,-0.17,16.59,9.66,-67.76
-0.94,-0.16,-0.14,14.56,13.86,-65.87
-0.95,-0.16,-0.1,8.61,17.15,-65.38
-0.95,-0.21,-0.14,6.72,19.95,-65.45
-0.99,-0.23,-0.22,7.49,0.7,-66.64
-1,-0.28,-0.25,2.45,15.47,-67.2
-0.98,-0.31,-0.24,0.7,14.7,-68.95
-0.95,-0.29,-0.23,-8.12,11.48,-71.4
-0.9,-0.29,-0.21,-18.48,8.47,-73.15
-0.84,-0.29,-0.2,-24.15,8.61,-74.41
-0.79,-0.31,-0.16,-24.15,11.34,-74.9
-0.81,-0.35,-0.14,-21.28,15.4,-73.57
-0.88,-0.37,-0.14,-16.52,20.44,-70.84
-0.9,-0.39,-0.15,-6.23,26.81,-70.42
-0.92,-0.33,-0.18,2.17,29.75,-71.54
-0.94,-0.29,-0.19,8.89,32.41,-72.45
-0.96,-0.26,-0.21,12.18,32.13,-72.17
-0.99,-0.21,-0.22,12.88,28.56,-69.65
-1.01,-0.17,-0.22,10.5,21.63,-65.38
-1.07,-0.1,-0.15,4.83,18.34,-59.78
-1.14,-0.01,-0.13,2.1,13.58,-55.44
-1.16,0.03,-0.11,4.48,13.65,-51.17
-1.22,0.03,-0.15,5.67,10.71,-47.11
-1.21,-0.02,-0.2,2.31,7.56,-42.49
-1.23,-0.05,-0.2,-4.83,4.76,-36.26
-1.18,-0.08,-0.2,-10.92,1.82,-31.78
-1.13,-0.13,-0.16,-9.8,-0.77,-28.42
-1.1,-0.2,-0.17,-10.78,-8.61,-22.96
-1.09,-0.25,-0.14,-10.43,-9.1,-17.36
-1.14,-0.27,-0.14,-9.1,-19.53,-8.96
-1.17,-0.25,-0.03,-2.03,-24.08,2.59
-1.27,-0.05,0.17,7.7,-24.36,6.58
-1.42,0.04,0.18,24.43,-37.73,19.25
-1.3,0.18,0.29,54.88,-39.48,25.55
-1.24,0.34,0.3,75.67,-35.42,35.56
-1.35,0.51,0.26,78.96,-37.94,48.65
-1.47,0.52,0.26,75.74,-48.09,62.51
-1.42,0.42,0.05,64.68,-47.32,73.78
-1.3,0.32,-0.14,36.33,-39.83,84.84
-1.14,0.22,-0.24,7.14,-31.99,95.55
-1.12,0.06,-0.31,-18.41,-21.49,109.27
-1.21,-0.14,-0.43,-28.7,-26.18,119.21
-1.13,-0.39,-0.45,-32.13,-33.88,122.92
-1.08,-0.64,-0.58,-38.15,-30.45,117.18
-1.05,-0.7,-0.75,-44.52,-19.32,117.74
-1.16,-0.6,-0.89,-49.14,-21.28,117.11
-1.22,-0.58,-0.83,-57.54,-27.79,114.94
-1.21,-0.85,-0.69,-56.35,-38.22,106.05
-1.19,-0.94,-0.57,-36.12,-39.76,102.34
-1.23,-0.81,-0.59,-14.42,-45.92,103.67
-1.19,-0.62,-0.6,1.68,-61.53,110.25
-1.09,-0.53,-0.3,24.99,-64.19,113.61
-1,-0.55,-0.1,21.7,-60.06,119.07
-0.93,-0.51,-0.13,11.48,-53.41,123.76
-0.96,-0.46,-0.18,2.45,-49.35,123.9
-0.93,-0.48,-0.16,-7.98,-53.13,123.41
-0.87,-0.56,-0.16,-14.56,-58.87,122.22
-0.82,-0.58,-0.18,-11.55,-64.54,118.58
-0.72,-0.58,-0.18,-10.22,-68.25,114.8
-0.65,-0.58,-0.14,-13.23,-65.31,108.85
-0.61,-0.54,-0.11,-18.13,-59.15,99.96
-0.57,-0.52,-0.09,-30.45,-50.68,88.83
-0.53,-0.52,-0.15,-42.63,-44.52,78.19
-0.51,-0.51,-0.17,-54.25,-39.83,66.92
-0.46,-0.53,-0.21,-58.52,-35.7,52.92
-0.4,-0.57,-0.26,-54.39,-31.43,43.05
-0.34,-0.61,-0.26,-51.1,-28.49,35.98
-0.34,-0.64,-0.23,-45.43,-26.32,24.78
-0.31,-0.63,-0.23,-44.03,-17.29,12.25
-0.44,-0.67,-0.24,-37.1,-12.6,1.96
-0.49,-0.72,-0.2,-30.52,-14.98,-8.96
-0.54,-0.65,-0.12,-17.08,-13.79,-8.54
-0.59,-0.4,-0.06,-6.93,-8.19,-0.77
-0.68,-0.31,-0.06,7.91,-4.2,10.43
-0.89,-0.1,-0.02,9.73,0.98,19.46
-1.08,0.06,0.24,1.26,2.45,26.25
-1.2,0.26,0.59,-3.22,8.4,28.28
-1.53,0.6,0.68,-19.74,-4.69,27.51
-1.6,0.89,0.58,-24.64,-19.39,14.35
-1.53,1.09,0.53,-11.55,-20.02,9.8
-1.48,1.44,0.47,14.56,-10.57,5.74
-1.51,1.57,0.36,17.22,-1.47,6.23
-1.51,1.35,0.29,2.52,0.14,10.22
-1.41,0.94,0.14,-7.35,0.14,16.52
-1.24,0.52,0.02,-19.39,-2.73,16.24
-1.04,0.09,-0.11,-32.83,-2.24,2.66
-0.9,-0.43,-0.13,-46.83,7.49,-27.58
-1.11,-0.79,0.14,-58.38,4.27,-50.12
-1.46,-0.81,0.46,-60.2,-5.32,-41.44
-1.55,-0.21,0.23,-57.89,0.56,-11.48
-1.24,0,0.08,-30.24,10.5,-9.52
-0.89,-0.07,0.09,-1.26,41.09,-36.82
-0.75,-0.17,0.12,20.79,94.85,-62.79
-0.62,-0.35,-0.03,40.25,122.71,-74.48
-0.53,-0.65,-0.22,82.74,126.14,-67.9
-0.46,-1.04,-0.66,143.36,116.62,-47.04
-0.41,-1.18,-0.8,160.3,106.89,-40.6
-0.38,-1.43,-0.78,113.82,106.82,-65.17
-0.5,-1.51,-0.66,52.5,85.4,-69.16
-1,-1.03,-0.39,-5.39,61.11,-62.93
-0.96,-0.6,-0.19,-11.9,56,-62.16
-1.09,-0.27,-0.05,2.03,55.37,-59.99
-1.21,-0.03,-0.07,9.24,47.6,-57.96
-1.2,0.09,-0.27,7,41.44,-61.11
-1.11,0.11,-0.48,8.33,38.08,-64.68
-1.05,0.16,-0.6,7.35,37.03,-68.6
-1.08,0.14,-0.67,1.4,32.69,-74.27
-1,0.01,-0.61,-5.11,20.93,-79.1
-0.89,-0.14,-0.5,-6.23,14.14,-80.5
-0.87,-0.31,-0.39,-0.07,10.22,-84
-0.92,-0.44,-0.29,5.32,3.01,-86.45
-0.98,-0.42,-0.2,0.07,-4.13,-89.39
-0.98,-0.45,-0.29,-0.07,-11.06,-88.69
-0.83,-0.37,-0.27,8.05,-17.78,-89.04
-0.82,-0.32,-0.26,7.56,-15.75,-85.68
-0.87,-0.23,-0.23,-4.2,-11.41,-84.14
-0.9,-0.18,-0.24,-22.89,-9.03,-83.37
-0.93,-0.24,-0.17,-22.19,0.21,-79.87
-0.95,-0.26,-0.04,-13.65,9.45,-77.77
-0.95,-0.27,-0.01,-4.34,15.47,-78.05
-0.97,-0.26,-0.05,3.92,19.88,-78.68
-0.93,-0.24,-0.13,7.7,23.87,-78.82
-0.92,-0.25,-0.21,7.63,26.53,-78.26
-0.95,-0.27,-0.26,4.41,27.02,-78.4
-0.94,-0.28,-0.27,0.98,24.78,-79.73
-0.89,-0.27,-0.22,-4.06,20.37,-80.85
-0.86,-0.26,-0.19,-10.57,15.26,-80.15
-0.81,-0.26,-0.18,-14.49,12.67,-79.59
-0.83,-0.26,-0.2,-20.37,10.64,-77.49
-0.89,-0.26,-0.22,-22.75,9.52,-74.27
-0.93,-0.26,-0.21,-21.84,10.85,-73.01
-0.75,-0.26,-0.17,-13.37,12.04,-76.02
-0.77,-0.21,-0.15,-4.41,34.79,-79.45
-1.15,-0.2,-0.26,-0.35,19.6,-78.47
-1.21,-0.21,-0.3,-4.62,14.49,-75.81
-1.16,-0.2,-0.26,-12.18,11.9,-72.38
-1.19,-0.16,-0.21,-17.99,10.5,-70.28
-1.19,-0.15,-0.16,-22.61,7.98,-67.27
-1.18,-0.21,-0.13,-23.52,5.53,-62.23
-1.21,-0.23,-0.09,-24.01,2.59,-54.81
-1.24,-0.2,-0.02,-23.8,-0.84,-44.66
-1.18,-0.18,0.03,-12.32,-3.29,-35.28
-1.12,-0.17,0.05,8.05,-0.14,-27.58
-1.2,-0.18,-0.04,27.51,1.54,-19.95
-1.27,-0.17,-0.14,38.99,-1.54,-9.73
-1.3,-0.11,-0.21,44.24,-6.37,0
-1.35,0.02,-0.11,44.1,-14.21,10.92
-1.41,0.09,0.02,42.28,-24.85,18.13
-1.47,0.11,0.17,62.79,-31.29,30.24
-1.51,0.24,0.19,73.99,-36.75,43.47
-1.57,0.39,0.16,73.22,-46.34,58.1
-1.57,0.46,0.16,67.27,-58.59,77.42
-1.47,0.4,0.03,58.87,-61.53,90.23
-1.28,0.28,-0.19,40.04,-50.75,102.62
-1.14,0.19,-0.26,13.79,-43.75,115.01
-1.01,0,-0.25,6.79,-43.19,127.47
-0.9,-0.1,-0.28,15.4,-37.24,148.47
-0.93,-0.2,-0.48,0.63,-34.23,138.6
-0.93,-0.59,-0.74,-26.67,-30.8,131.6
-1.01,-0.62,-0.75,-34.02,-34.44,126.91
-1.03,-0.61,-0.69,-47.67,-33.46,121.59
-1.11,-0.73,-0.6,-45.85,-29.82,118.16
-1.31,-0.79,-0.45,-45.5,-29.26,110.25
-1.37,-0.74,-0.38,-47.39,-26.74,110.32
-1.39,-0.51,-0.39,-55.44,-34.51,111.86
-1.34,-0.53,-0.45,-34.72,-35.84,119
-1.21,-0.65,-0.46,-15.75,-43.75,125.79
-1.04,-0.75,-0.45,-3.92,-51.38,131.74
-0.92,-0.73,-0.33,-4.27,-55.3,138.04
-0.83,-0.71,-0.22,-2.03,-58.45,141.19
-0.78,-0.7,-0.21,3.36,-61.46,140.42
-0.76,-0.62,-0.19,0,-61.67,136.36
-0.7,-0.58,-0.18,-1.47,-61.95,131.46
-0.66,-0.52,-0.16,-3.15,-58.94,124.74
-0.63,-0.5,-0.18,-11.55,-56.84,119.14
-0.63,-0.46,-0.16,-29.12,-54.46,111.79
-0.64,-0.45,-0.13,-39.06,-51.66,99.61
-0.63,-0.44,-0.14,-53.06,-45.99,82.95
-0.57,-0.49,-0.19,-62.09,-42.84,65.24
-0.5,-0.54,-0.2,-72.03,-34.16,52.5
-0.44,-0.58,-0.24,-78.26,-28.77,40.04
-0.39,-0.65,-0.27,-77.28,-23.31,31.85
-0.33,-0.66,-0.29,-73.08,-20.51,23.59
-0.25,-0.68,-0.29,-68.81,-11.62,16.73
-0.3,-0.7,-0.26,-54.67,-7.84,14.98
-0.37,-0.73,-0.11,-42.28,-10.92,7.77
-0.46,-0.7,0.02,-26.46,-13.79,3.78
-0.53,-0.56,-0.02,-16.24,-5.6,6.37
-0.67,-0.38,-0.09,-10.92,2.31,13.79
-0.8,-0.22,0.03,-7.7,10.57,18.55
-1.01,0,0.29,-8.61,20.79,20.44
-1.18,0.47,0.59,-24.36,29.05,21.14
-1.43,0.68,0.58,-31.85,15.33,15.05
-1.7,1.05,0.43,-26.18,-13.72,9.45
-1.74,1.42,0.5,-8.89,-21.7,13.79
-1.72,1.81,0.57,26.39,-14,15.4
-1.6,1.73,0.55,27.37,-3.36,6.93
-1.59,1.25,0.34,2.52,-0.91,7.49
-1.48,0.67,0.12,-24.08,-1.75,9.38
-1.24,0.26,-0.08,-45.5,-3.78,5.81
-0.87,-0.16,-0.31,-58.03,2.66,-9.45
-0.66,-0.57,-0.36,-60.76,18.97,-35
-0.89,-0.95,-0.09,-48.65,21.14,-62.37
-1.37,-0.88,0.46,-42.07,7.49,-58.1
-1.61,-0.47,0.5,-26.25,13.79,-28
-1.22,-0.08,0.25,-3.22,32.62,-33.46
-0.92,-0.1,0.09,14.28,83.72,-46.34
-0.96,-0.14,0.04,28.77,120.19,-57.33
-0.94,-0.49,-0.19,67.9,135.52,-55.23
-0.84,-0.88,-0.33,136.5,138.67,-34.79
-0.75,-1.11,-0.46,150.71,127.05,-15.19
-0.39,-1.42,-0.52,128.1,109.97,-49.21
-0.22,-1.86,-0.63,129.22,93.17,-62.02
-0.51,-1.33,-0.61,106.47,66.99,-60.2
-0.76,-0.75,-0.68,63.63,45.5,-60.41
-0.78,-0.43,-0.52,39.48,48.72,-61.11
-1,-0.26,-0.48,31.36,58.8,-57.26
-1.17,-0.1,-0.46,19.88,50.05,-57.19
-1.2,-0.04,-0.47,5.74,39.41,-57.75
-1.13,-0.05,-0.55,-0.84,36.75,-61.25
-1.05,-0.05,-0.6,-3.78,32.69,-68.11
-1.07,-0.11,-0.61,-10.08,22.54,-76.3
-0.97,-0.22,-0.53,1.96,20.72,-83.37
-0.88,-0.3,-0.42,20.02,20.02,-88.06
-0.94,-0.37,-0.35,33.6,17.5,-88.76
-1.01,-0.39,-0.36,26.46,9.73,-88.69
-0.96,-0.35,-0.39,29.89,-5.88,-91.42
-0.85,-0.27,-0.32,26.95,-8.68,-87.5
-0.73,-0.25,-0.27,16.94,-4.62,-82.11
-0.79,-0.24,-0.26,10.01,-3.71,-77.7
-0.81,-0.2,-0.14,17.43,-4.13,-72.03
-0.85,-0.19,-0.11,13.16,4.9,-69.09
-0.91,-0.23,-0.11,14.98,13.16,-68.53
-0.97,-0.24,-0.11,19.25,17.64,-67.97
-1,-0.22,-0.12,28.35,20.44,-68.18
-0.99,-0.18,-0.12,37.03,23.03,-67.97
-0.96,-0.15,-0.13,39.76,25.06,-66.57
-0.95,-0.15,-0.16,39.48,26.95,-65.38
-0.94,-0.14,-0.19,36.54,27.3,-65.8
-0.93,-0.13,-0.22,31.22,28.35,-66.85
-0.9,-0.16,-0.25,24.01,27.93,-68.18
-0.89,-0.19,-0.28,18.76,26.74,-69.37
-0.9,-0.18,-0.28,11.83,24.71,-71.61
-0.92,-0.16,-0.28,6.09,21.21,-72.31
-0.94,-0.11,-0.29,0.84,17.29,-72.24
-0.97,-0.05,-0.28,-4.83,12.53,-70.21
-1.01,0,-0.26,-11.34,8.61,-67.76
-1.06,0.05,-0.25,-17.01,3.92,-64.82
-1.09,0.09,-0.25,-23.66,2.17,-60.55
-1.12,0.11,-0.24,-24.29,2.45,-57.05
-1.17,0.08,-0.25,-22.47,2.52,-53.41
-1.21,0,-0.24,-18.69,0.98,-45.71
-1.26,-0.09,-0.19,-19.04,-2.66,-37.73
-1.29,-0.12,-0.14,-19.46,-8.89,-29.26
-1.21,-0.09,-0.08,-17.71,-10.99,-19.53
-1.14,-0.09,-0.04,-10.78,-20.65,-12.74
-1.11,-0.11,0.05,0.21,-27.65,-2.66
-1.17,-0.1,0.08,9.17,-34.58,4.76
-1.28,-0.07,0.08,15.96,-40.74,14.07
-1.42,0.02,0.16,25.06,-50.96,23.03
-1.57,0.16,0.35,43.96,-67.76,33.74
-1.56,0.27,0.5,75.18,-72.87,44.38
-1.49,0.3,0.47,108.22,-63,56.07
-1.5,0.27,0.13,111.44,-52.43,66.92
-1.48,0.23,-0.03,97.44,-50.54,80.5
-1.38,0.23,-0.34,75.39,-51.31,97.93
-1.23,0.57,-0.57,24.71,-61.95,114.38
-1.21,0.19,-0.71,-25.06,-74.97,115.22
-0.99,-0.22,-0.79,-39.9,-79.59,126.56
-0.83,-0.46,-0.89,-52.22,-72.38,134.82
-0.92,-0.77,-1.01,-68.6,-59.85,144.13
-1.27,-0.96,-0.7,-58.66,-46.41,160.44
-1.33,-0.95,-0.94,-50.68,-63.28,140.84
-1.22,-1.13,-0.67,-37.66,-57.47,146.86
-1.14,-1.19,-0.5,1.05,-41.86,141.47
-1.22,-1.02,-0.5,25.41,-46.2,136.22
-1.27,-0.6,-0.56,7.56,-64.19,124.53
-1.14,-0.45,-0.33,15.19,-62.16,124.88
-1.07,-0.38,-0.09,25.97,-60.41,118.93
-0.94,-0.38,-0.01,15.12,-53.62,118.09
-0.81,-0.43,-0.04,-3.85,-45.5,117.32
-0.74,-0.52,-0.07,-8.89,-42.14,118.65
-0.73,-0.56,-0.1,-12.88,-47.6,119.63
-0.75,-0.57,-0.09,-13.51,-56.91,116.06
-0.74,-0.57,-0.02,-12.53,-61.88,108.85
-0.69,-0.61,0.04,-8.89,-58.8,97.79
-0.65,-0.59,0.04,-10.01,-50.89,90.51
-0.63,-0.56,0.02,-17.5,-43.82,83.65
-0.62,-0.55,0,-25.2,-39.34,76.3
-0.59,-0.55,-0.01,-29.33,-34.3,68.11
-0.57,-0.56,-0.02,-32.06,-28.42,56.7
-0.54,-0.55,-0.05,-35.56,-21.14,43.12
-0.51,-0.54,-0.11,-38.01,-15.75,29.96
-0.49,-0.51,-0.16,-40.18,-17.01,18.83
-0.38,-0.52,-0.13,-36.75,-6.23,10.29
-0.36,-0.53,-0.12,-17.08,7.91,6.51
-0.45,-0.52,-0.12,-3.36,8.89,1.61
-0.57,-0.5,-0.11,-1.96,2.38,-4.62
-0.67,-0.52,-0.05,2.52,0.91,-4.69
-0.74,-0.35,0,5.25,6.51,3.22
-0.81,-0.14,0.01,9.31,13.09,12.88
-0.92,0.09,0.07,5.95,16.38,22.75
-1.01,0.23,0.19,1.89,23.45,23.1
-1.11,0.41,0.26,-4.2,27.51,18.2
-1.17,0.61,0.38,-12.74,31.99,12.18
-1.3,0.96,0.35,-13.3,27.79,-1.19
-1.4,1.08,0.3,-12.11,17.64,-9.8
-1.51,1.21,0.38,-5.74,0.07,-11.06
-1.58,1.26,0.46,-0.7,-7.7,-4.69
-1.49,1.17,0.45,-6.93,-10.36,1.96
-1.34,0.97,0.27,-16.59,-4.97,5.81
-1.26,0.65,0.09,-26.39,-0.7,6.58
-1.22,0.34,-0.01,-41.79,-4.97,5.81
-1.1,0.09,-0.08,-52.99,-6.72,-0.49
-0.89,-0.22,-0.22,-60.55,0.14,-15.89
-0.77,-0.51,-0.13,-60.62,24.99,-35.84
-1.09,-0.59,0,-61.88,10.22,-54.67
-1.44,-0.49,0.28,-55.58,-11.9,-34.16
-1.51,-0.24,0.32,-37.24,-3.71,-6.79
-1.24,-0.18,0.21,-20.72,-7.49,-13.86
-0.99,-0.19,0.15,-8.68,26.53,-33.81
-0.93,-0.18,0.17,4.9,58.1,-56.42
-0.88,-0.24,0.17,27.02,95.13,-70.07
-0.85,-0.47,0.07,65.17,126.49,-64.75
-0.75,-0.73,-0.21,113.89,138.18,-48.16
-0.59,-1.01,-0.69,165.06,128.24,-32.76
-0.45,-1.26,-0.71,179.13,108.5,-41.44
-0.42,-1.27,-0.63,134.75,85.05,-50.47
-0.7,-1.04,-0.51,66.78,56.77,-53.97
-0.9,-0.69,-0.34,7.77,36.19,-52.36
-0.99,-0.36,-0.18,5.39,30.94,-53.2
-1.15,-0.16,-0.11,10.36,34.23,-51.73
-1.25,0,-0.22,15.33,32.2,-51.45
-1.23,0,-0.39,11.13,32.34,-53.76
-1.12,-0.02,-0.52,10.01,41.37,-58.59
-1.14,-0.03,-0.57,10.5,37.45,-64.33
-1.08,-0.06,-0.55,11.97,23.17,-71.47
-0.93,-0.08,-0.43,17.92,12.39,-76.09
-0.8,-0.16,-0.4,25.13,6.02,-75.46
-0.8,-0.22,-0.35,28.35,4.41,-75.6
-0.87,-0.2,-0.23,12.67,4.34,-76.58
-0.93,-0.37,-0.33,8.68,2.52,-74.34
-0.96,-0.32,-0.29,14.7,0.42,-73.22
-0.93,-0.27,-0.23,13.02,-3.99,-73.36
-0.87,-0.27,-0.14,12.81,-3.01,-69.09
-0.84,-0.23,-0.08,19.6,-0.84,-64.96
-0.85,-0.19,-0.06,23.1,1.89,-63.63
-0.9,-0.18,-0.05,29.82,11.55,-61.67
-0.94,-0.17,-0.06,33.32,18.69,-60.62
-0.99,-0.15,-0.08,30.73,22.4,-59.71
-1.01,-0.15,-0.11,29.26,22.96,-59.57
-1.01,-0.13,-0.19,25.34,19.81,-61.95
-0.97,-0.18,-0.21,21,18.76,-62.51
-0.95,-0.18,-0.22,18.27,17.22,-64.75
-0.93,-0.2,-0.25,12.11,13.93,-66.36
-0.9,-0.21,-0.26,5.95,12.88,-68.25
-0.89,-0.24,-0.26,-2.24,14.07,-69.72
-0.89,-0.26,-0.26,-5.6,14.63,-72.52
-0.89,-0.29,-0.26,-8.33,12.53,-74.97
-0.9,-0.3,-0.26,-10.64,10.15,-78.19
-0.89,-0.31,-0.24,-11.69,9.24,-78.75
-0.9,-0.28,-0.22,-9.24,10.71,-80.15
-0.94,-0.22,-0.24,-6.72,10.29,-79.94
-0.94,-0.19,-0.24,-4.83,11.62,-78.05
-1,-0.13,-0.22,-5.95,10.85,-75.25
-1.06,-0.06,-0.21,-9.94,6.37,-70.7
-1.09,0,-0.22,-14.84,1.61,-65.52
-1.25,0,-0.22,-21,-4.83,-58.87
-1.16,-0.01,-0.18,-27.37,-8.4,-51.38
-1.2,-0.02,-0.12,-32.97,-7.56,-42.7
-1.21,-0.04,-0.04,-29.89,-8.61,-34.86
-1.18,-0.08,0.01,-21.91,-10.15,-28.7
-1.13,-0.14,0.04,-6.51,-8.96,-20.23
-1.13,-0.15,0.03,11.69,-10.01,-15.19
-1.04,-0.15,-0.01,29.19,-14.49,-11.62
-1.25,-0.06,-0.04,42.21,-11.27,-2.73
-1.53,0.09,-0.09,43.54,-18.97,3.71
-1.58,0.2,-0.1,37.03,-35.56,12.18
-1.52,0.23,0.04,36.61,-52.01,22.68
-1.52,0.42,0.15,42.98,-60.48,39.55
-1.52,0.52,0.24,49.14,-64.96,48.65
-1.43,0.46,0.19,45.57,-65.59,60.83
-1.37,0.39,0.02,30.03,-59.22,73.08
-1.29,0.31,-0.15,9.52,-54.25,89.67
-1.17,0.19,-0.3,-13.23,-48.93,99.47
-1.1,-0.05,-0.4,-47.74,-42.21,109.55
-1.02,-0.39,-0.45,-76.79,-37.66,106.12
-1.05,-0.85,-0.41,-72.1,-18.9,108.5
-1.03,-1.08,-0.61,-25.55,-0.77,108.15
-1.09,-1.16,-0.77,-9.45,-5.32,109.9
-1.1,-0.91,-0.86,-14.07,-25.41,114.24
-1.1,-0.64,-0.79,-19.11,-40.18,110.11
-1.01,-0.53,-0.63,-18.69,-42.91,102.13
-0.98,-0.54,-0.48,-9.59,-33.67,98.21
-1.11,-0.29,-0.38,-22.89,-29.4,99.68
-1.07,-0.39,-0.28,-25.83,-33.88,103.95
-1.17,-0.46,-0.14,-10.71,-37.87,110.11
-1.07,-0.57,-0.13,6.02,-46.13,116.06
-0.88,-0.6,-0.08,6.23,-43.61,122.71
-0.82,-0.57,0.01,0.77,-40.53,122.08
-0.76,-0.51,0,-2.03,-40.39,118.44
-0.68,-0.47,-0.03,-6.16,-41.3,114.8
-0.65,-0.45,-0.06,-8.82,-42.07,109.2
-0.65,-0.43,-0.13,-8.54,-42.84,102.97
-0.66,-0.42,-0.2,-15.82,-47.04,99.05
-0.69,-0.4,-0.2,-26.46,-51.03,94.57
-0.72,-0.4,-0.13,-35.98,-50.82,88.62
-0.69,-0.45,-0.09,-38.71,-44.59,82.25
-0.69,-0.48,-0.1,-43.61,-40.11,69.51
-0.71,-0.52,-0.13,-50.82,-38.92,59.71
-0.67,-0.6,-0.16,-51.73,-37.17,51.73
-0.59,-0.61,-0.11,-52.64,-34.65,43.4
-0.51,-0.64,-0.1,-48.93,-27.58,31.5
-0.46,-0.65,-0.1,-42.07,-1.4,23.03
-0.44,-0.68,-0.09,-34.3,-11.48,16.87
-0.47,-0.65,-0.05,-20.93,-7.21,9.38
-0.56,-0.63,0.01,-4.55,-6.37,7.7
-0.63,-0.49,0.02,9.52,-2.45,11.69
-0.68,-0.35,-0.01,15.47,3.71,13.65
-0.77,-0.15,0,17.99,12.74,20.3
-1,0.05,0.11,25.13,18.48,23.8
-1.04,0.31,0.22,23.59,14.35,27.37
-1.14,0.56,0.38,9.52,13.23,28.42
-1.26,0.76,0.44,0.91,14,20.02
-1.41,1.01,0.41,-6.23,1.26,12.88
-1.52,1.24,0.42,-2.38,-11.69,12.11
-1.57,1.38,0.43,7.56,-15.4,11.62
-1.45,1.29,0.26,4.48,-13.37,4.48
-1.35,1,0.17,-6.65,-7.42,1.26
-1.25,0.53,0.01,-16.24,-4.69,-1.89
-1.07,0.21,-0.1,-26.6,-6.58,-8.05
-0.85,-0.07,-0.16,-40.81,0.49,-19.25
-0.7,-0.36,-0.26,-48.02,11.9,-37.59
-0.63,-0.65,-0.24,-42.98,35.07,-64.89
-0.95,-0.67,-0.05,-22.82,40.46,-71.26
-1.35,-0.43,0.08,-22.12,29.61,-57.4
-1.55,-0.28,0.27,-5.88,20.16,-36.26
-1.42,-0.07,0.22,4.97,23.52,-23.17
-1.26,-0.02,0.16,9.31,49.42,-29.4
-1.31,-0.07,0.19,18.69,84.14,-47.6
-1.2,-0.3,0.19,52.15,100.1,-55.79
-0.94,-0.6,0.1,78.05,112.84,-56.35
-0.69,-0.88,-0.12,133.56,118.58,-51.73
-0.5,-1.05,-0.47,185.36,116.62,-48.37
-0.37,-1.28,-0.63,203.56,102.06,-48.79
-0.51,-1.21,-0.61,147.35,81.13,-62.58
-0.88,-0.99,-0.6,69.93,55.37,-55.37
-0.9,-0.53,-0.54,20.79,41.44,-57.96
-0.94,-0.29,-0.45,19.46,46.69,-57.4
-1.08,-0.14,-0.44,17.57,37.24,-53.41
-1.07,-0.08,-0.45,7.91,29.26,-56.84
-1.02,-0.11,-0.52,0.98,24.36,-62.93
-0.99,-0.1,-0.53,-11.55,10.64,-68.46
-0.86,-0.16,-0.37,-8.33,17.57,-75.46
-0.9,-0.24,-0.31,13.58,13.93,-85.33
-0.89,-0.31,-0.21,34.86,16.03,-93.31
-0.94,-0.38,-0.23,50.89,20.02,-95.83
-1.03,-0.36,-0.32,54.11,12.18,-96.39
-0.99,-0.32,-0.46,47.81,2.17,-92.26
-0.78,-0.25,-0.45,38.01,-6.51,-88.13
-0.89,-0.25,-0.36,26.81,-10.92,-81.06
-0.91,-0.19,-0.23,5.18,-16.52,-82.25
-0.94,-0.18,-0.14,-5.6,-15.12,-82.46
-0.96,-0.21,-0.14,-3.29,-10.29,-81.48
-0.94,-0.23,-0.14,-4.13,-6.37,-79.1
-0.92,-0.22,-0.16,-9.17,-4.13,-78.05
-0.93,-0.2,-0.18,-13.79,-1.47,-78.12
-0.93,-0.17,-0.15,-12.32,3.01,-78.33
-0.89,-0.2,-0.09,-7.07,9.24,-77.98
-0.89,-0.24,-0.07,-0.07,14.28,-75.81
-0.88,-0.32,-0.08,7.21,17.92,-73.5
-0.9,-0.38,-0.1,13.23,20.51,-71.96
-0.96,-0.36,-0.16,16.03,23.73,-71.26
-1,-0.33,-0.22,18.13,23.87,-67.97
-1.01,-0.31,-0.31,11.13,21.77,-61.67
-1.06,-0.33,-0.32,5.67,24.5,-54.32
-1.05,-0.32,-0.25,7.7,18.06,-52.22
-0.86,-0.31,-0.11,14.56,12.67,-57.12
-0.87,-0.15,-0.05,22.68,24.08,-56.7
-0.92,-0.1,-0.12,24.36,17.36,-57.19
-0.89,-0.09,-0.03,29.89,27.23,-58.17
-0.97,0.02,-0.1,21.7,24.36,-59.22
-1.03,0.01,-0.22,9.03,21.42,-53.69
-1.09,0,-0.33,-1.96,16.31,-50.89
-1.15,-0.04,-0.32,-11.48,12.18,-46.69
-1.25,-0.05,-0.31,-19.32,-16.1,-43.61
-1.36,-0.12,-0.3,-27.58,-16.24,-36.61
-1.23,-0.14,-0.2,-28.28,-18.55,-35.56
-1.09,-0.12,-0.17,-27.79,-24.92,-35.63
-1,-0.11,-0.11,-29.05,-27.44,-30.17
-0.99,-0.13,-0.03,-26.46,-23.8,-22.54
-1.08,-0.11,0,-18.13,-21.21,-16.03
-1.24,-0.04,0.02,-10.15,-25.83,-8.54
-1.42,0.07,0.1,2.1,-25.83,4.9
-1.5,0.22,0.17,31.92,-29.89,20.44
-1.56,0.37,0.21,57.54,-39.55,36.47
-1.59,0.47,0.2,69.93,-51.59,53.34
-1.6,0.49,0.18,71.4,-59.22,74.34
-1.61,0.43,0.08,65.59,-61.11,92.47
-1.54,0.42,-0.09,53.13,-53.06,107.8
-1.43,0.26,-0.21,33.39,-45.57,115.92
-1.34,0.14,-0.28,2.73,-36.33,117.04
-1.17,-0.01,-0.49,-37.52,-27.02,121.52
-1.06,-0.26,-0.53,-57.96,-30.8,122.71
-0.98,-0.52,-0.55,-51.8,-49.63,132.86
-0.89,-0.89,-0.62,-46.06,-50.68,133.98
-1.02,-0.99,-0.8,-36.4,-34.23,131.88
-1.21,-0.9,-0.81,-44.24,-33.04,124.81
-1.35,-0.92,-0.72,-43.89,-35.42,117.95
-1.31,-0.99,-0.63,-36.26,-38.43,105.84
-1.23,-0.87,-0.67,-27.37,-48.65,107.66
-1.11,-0.55,-0.53,-18.62,-48.58,114.24
-1.08,-0.46,-0.41,6.02,-48.44,119.98
-0.99,-0.55,-0.26,7.28,-49.35,126.49
-0.82,-0.54,-0.15,-7.84,-41.09,132.3
-0.78,-0.55,-0.13,-19.04,-36.05,135.59
-0.78,-0.57,-0.25,-29.47,-37.66,136.57
-0.74,-0.6,-0.25,-33.32,-43.68,135.94
-0.7,-0.65,-0.2,-32.34,-49.42,133.21
-0.73,-0.66,-0.2,-22.68,-56.07,128.1
-0.69,-0.61,-0.16,-24.57,-58.87,120.4
-0.65,-0.57,-0.12,-33.81,-58.03,109.69
-0.62,-0.53,-0.06,-40.32,-52.99,94.5
-0.58,-0.49,-0.04,-53.55,-47.11,79.45
-0.55,-0.62,-0.06,-69.65,-42.84,60.2
-0.48,-0.58,-0.14,-76.09,-39.62,46.41
-0.4,-0.62,-0.18,-78.96,-33.11,33.32
-0.39,-0.69,-0.19,-79.66,-29.4,21.7
-0.37,-0.76,-0.19,-75.39,-25.13,12.25
-0.37,-0.79,-0.19,-66.71,-22.75,5.46
-0.38,-0.8,-0.16,-53.06,-20.58,-0.28
-0.39,-0.76,-0.12,-38.43,-18.34,-5.18
-0.49,-0.72,-0.03,-20.09,-15.4,-3.92
-0.6,-0.58,-0.01,-4.34,-8.19,0
-0.69,-0.4,0,7.35,1.61,8.82
-0.86,-0.18,0.1,10.43,5.88,23.24
-1.06,0.04,0.33,9.94,6.51,31.85
-1.23,0.31,0.59,-2.1,11.9,31.78
-1.33,0.64,0.59,-14.98,21.07,22.26
-1.53,1.04,0.34,-12.6,1.33,14.07
-1.68,1.4,0.33,-5.11,-15.61,12.95
-1.73,1.61,0.42,34.72,-12.53,17.08
-1.63,1.58,0.45,48.44,-4.48,13.44
-1.44,1.32,0.28,26.88,-0.42,5.32
-1.33,0.74,0.08,4.97,-2.38,10.01
-1.19,0.23,-0.08,-11.27,-5.11,8.47
-0.81,-0.07,-0.24,-31.43,3.29,-10.78
-0.6,-0.44,-0.35,-42.98,18.9,-38.29
-0.74,-0.76,-0.18,-33.25,26.18,-68.6
-1.16,-0.73,0.32,-23.66,20.16,-73.22
-1.51,-0.36,0.38,-27.02,22.75,-46.34
-1.54,0.03,0.26,-6.86,22.19,-21.28
-1.11,-0.01,0.1,9.31,42.98,-25.83
-1,-0.09,0.05,28.42,79.73,-38.99
-0.97,-0.25,0.02,55.86,106.47,-49.28
-0.9,-0.62,-0.1,94.57,117.46,-53.48
-0.72,-0.96,-0.29,150.85,114.03,-48.51
-0.54,-1.15,-0.47,216.79,104.09,-48.58
-0.47,-1.32,-0.49,185.92,89.81,-60.76
-0.53,-1.41,-0.58,127.89,64.47,-65.17
-0.81,-0.97,-0.52,65.45,45.43,-62.44
-0.97,-0.58,-0.45,30.59,30.94,-61.04
-0.95,-0.34,-0.24,30.45,37.52,-61.25
-1.03,-0.14,-0.26,31.15,37.31,-61.25
-1.04,-0.08,-0.35,21.91,29.33,-62.51
-1.01,-0.09,-0.49,5.39,26.46,-64.75
-1.03,-0.11,-0.62,-2.52,25.06,-67.48
-1.05,-0.1,-0.63,-1.89,16.8,-72.8
-0.98,-0.2,-0.49,3.78,5.74,-81.34
-0.93,-0.27,-0.36,11.9,0.98,-85.75
-0.98,-0.32,-0.23,23.38,-4.62,-89.46
-1.03,-0.3,-0.25,15.12,-10.57,-89.74
-0.95,-0.3,-0.34,18.9,-21.42,-90.16
-0.82,-0.25,-0.33,18.41,-25.55,-86.03
-0.72,-0.26,-0.26,3.08,-25.9,-81.06
-0.77,-0.25,-0.16,-6.23,-23.45,-76.79
-0.86,-0.21,-0.01,-14.35,-15.12,-73.78
-0.91,-0.26,0.07,-11.76,-4.13,-71.4
-0.96,-0.3,0.1,9.66,9.45,-71.33
-1,-0.28,0.07,22.68,19.88,-71.54
-0.93,-0.24,-0.03,30.45,26.74,-73.08
-1.01,-0.16,-0.17,32.27,27.86,-73.92
-1.01,-0.14,-0.24,28.28,24.36,-75.46
-0.99,-0.15,-0.25,20.23,18.76,-76.72
-0.97,-0.2,-0.24,11.2,12.81,-77.7
-0.94,-0.25,-0.24,0.84,8.47,-76.72
-0.89,-0.28,-0.22,-6.51,5.81,-75.18
-0.87,-0.27,-0.18,-12.6,6.44,-73.29
-0.78,-0.25,-0.11,-9.31,10.29,-73.08
-0.89,-0.17,-0.12,-3.29,12.11,-71.26
-0.94,-0.14,-0.17,3.71,13.51,-70.84
-0.94,-0.17,-0.24,8.26,15.4,-71.12
-1,-0.18,-0.27,8.96,15.19,-71.33
-1.06,-0.16,-0.27,5.04,11.13,-70.84
-1.06,-0.13,-0.25,-4.48,6.3,-67.97
-1.08,-0.07,-0.21,-14.49,2.52,-65.03
-1.12,-0.08,-0.17,-22.96,-1.05,-61.67
-1.16,-0.13,-0.14,-27.51,-5.18,-55.79
-1.17,-0.15,-0.08,-29.47,-8.61,-49.07
-1.18,-0.14,-0.02,-26.11,-9.1,-41.86
-1.16,-0.14,0.02,-15.89,-7.77,-34.16
-1.13,-0.18,0.05,6.51,-8.4,-25.9
-1.12,-0.18,0.05,26.81,-9.03,-17.22
-1.21,-0.15,-0.01,43.19,-9.03,-9.1
-1.3,-0.07,-0.05,55.3,-12.46,2.24
-1.4,0.08,-0.03,57.47,-18.69,12.32
-1.48,0.23,0.02,55.09,-31.22,20.93
-1.48,0.36,0.08,55.44,-39.62,32.48
-1.57,0.56,0.12,59.29,-52.08,45.5
-1.55,0.67,0.23,55.72,-62.02,58.52
-1.54,0.69,0.13,51.38,-61.25,72.31
-1.5,0.64,-0.13,34.58,-62.23,81.83
-1.4,0.38,-0.3,6.79,-62.23,94.29
-1.26,0.06,-0.39,-13.65,-63,107.87
-1.18,-0.23,-0.4,-33.95,-64.05,113.89
-1,-0.58,-0.37,-46.34,-51.59,120.05
-0.97,-0.77,-0.4,-50.61,-27.37,122.57
-1.05,-1.18,-0.48,-33.81,-0.28,119.63
-1.31,-1.32,-0.48,-15.96,-4.13,120.75
-1.22,-1.14,-0.57,-13.23,-24.01,124.53
-1.16,-0.95,-0.67,-1.33,-32.83,122.08
-1.15,-0.78,-0.59,-1.89,-28.35,113.33
-1.14,-0.61,-0.48,-0.07,-21.77,111.23
-1.12,-0.51,-0.33,2.8,-25.62,113.96
-1.08,-0.45,-0.25,4.69,-25.34,118.65
-1.02,-0.47,-0.23,3.64,-28.56,120.82
-0.89,-0.49,-0.13,-1.96,-29.68,124.88
-0.8,-0.5,-0.05,-11.34,-28.77,131.04
-0.8,-0.52,-0.03,-23.24,-29.26,133.49
-0.82,-0.55,-0.01,-28.98,-33.18,132.02
-0.79,-0.54,0,-36.05,-34.93,128.52
-0.74,-0.54,-0.02,-40.46,-36.4,120.12
-0.69,-0.56,-0.06,-39.83,-36.54,111.16
-0.65,-0.55,-0.07,-41.23,-34.58,102.41
-0.65,-0.51,-0.11,-51.03,-33.32,95.27
-0.64,-0.5,-0.15,-60.06,-33.18,89.67
-0.66,-0.54,-0.23,-52.78,-32.06,81.97
-0.66,-0.51,-0.21,-62.65,-34.93,71.19
-0.61,-0.6,-0.19,-67.9,-32.83,57.82
-0.54,-0.61,-0.2,-69.3,-23.66,46.69
-0.48,-0.65,-0.21,-69.44,-18.41,35.63
-0.42,-0.67,-0.23,-61.25,-16.1,26.11
-0.35,-0.69,-0.21,-49.98,-9.87,19.32
-0.34,-0.66,-0.18,-37.1,-4.48,13.58
-0.37,-0.64,-0.15,-29.61,1.47,6.09
-0.47,-0.65,-0.06,-23.31,-0.91,0.42
-0.56,-0.55,0.01,-14.91,-2.24,0.63
-0.64,-0.42,0.02,-8.54,3.29,4.69
-0.77,-0.23,0.01,2.8,11.13,14.77
-0.97,0.03,0.03,8.82,14.14,28.28
-1.1,0.32,0.3,8.54,31.99,41.16
-1.27,0.58,0.45,7.49,31.5,40.74
-1.47,0.81,0.4,4.76,12.53,30.94
-1.6,1.09,0.59,14.84,1.61,30.8
-1.62,1.52,0.53,38.71,4.2,28.7
-1.69,1.83,0.39,40.81,6.37,21.84
-1.59,1.52,0.21,26.74,2.38,21.21
-1.48,1.05,-0.06,1.61,-5.53,20.93
-1.26,0.6,-0.1,-27.09,-11.9,19.18
-1.02,0.16,-0.06,-48.3,-16.52,12.18
-0.8,-0.11,-0.06,-67.62,-13.79,-3.64
-0.51,-0.42,-0.18,-87.29,0.35,-28.35
-0.39,-0.71,-0.29,-96.11,19.25,-55.37
-0.47,-0.83,-0.31,-92.96,35.77,-78.12
-0.85,-0.27,-0.27,-22.4,-41.58,102.76
-0.83,-0.63,-0.35,-18.69,-27.23,107.03
-0.88,-0.89,-0.34,-1.26,-13.37,117.39
-0.99,-0.95,-0.42,15.05,-2.59,121.1
-1.1,-0.95,-0.62,15.47,-10.08,126.07
-1.13,-0.93,-0.71,11.83,-16.66,132.02
-1.24,-0.86,-0.64,8.33,-19.81,128.17
-1.28,-0.91,-0.49,18.62,-23.8,115.57
-1.15,-0.8,-0.41,31.78,-25.55,110.53
-1.02,-0.46,-0.29,41.51,-20.23,114.03
-0.96,-0.41,-0.24,36.68,-15.82,115.99
-0.95,-0.46,-0.24,26.95,-16.24,118.02
-0.85,-0.51,-0.24,17.22,-17.29,120.26
-0.8,-0.47,-0.21,2.52,-16.17,124.18
-0.77,-0.45,-0.14,-9.17,-17.15,126.14
-0.76,-0.45,-0.1,-22.47,-21.63,124.32
-0.69,-0.48,-0.1,-32.62,-26.74,121.45
-0.66,-0.49,-0.1,-41.58,-29.47,117.53
-0.66,-0.49,-0.11,-44.66,-28.77,107.94
-0.66,-0.48,-0.13,-51.59,-27.3,100.31
-0.65,-0.49,-0.16,-57.82,-27.02,93.03
-0.64,-0.51,-0.18,-60.69,-25.06,84.49
-0.63,-0.53,-0.21,-61.6,-22.89,74.62
-0.58,-0.58,-0.2,-62.86,-18.69,61.46
-0.52,-0.6,-0.2,-65.52,-10.71,49.63
-0.49,-0.58,-0.16,-70.42,-4.69,37.17
-0.46,-0.61,-0.21,-65.17,-3.29,23.52
-0.41,-0.57,-0.19,-64.33,-3.36,15.82
-0.39,-0.59,-0.21,-52.22,4.06,12.39
-0.39,-0.6,-0.23,-33.6,6.16,9.59
-0.43,-0.59,-0.2,-16.8,8.96,6.37
-0.51,-0.57,-0.14,-3.43,12.46,3.85
-0.62,-0.52,-0.08,9.94,19.53,4.97
-0.76,-0.33,-0.03,18.83,26.25,15.05
-0.95,-0.06,-0.05,20.02,26.6,30.03
-1.15,0.23,0,17.85,18.83,45.92
-1.26,0.45,0.12,12.95,14.63,52.22
-1.33,0.63,0.16,4.76,5.11,42
-1.37,0.81,0.34,4.83,1.26,28.63
-1.42,1.14,0.58,14.21,5.74,0.77
-1.64,1.72,0.67,25.27,6.3,21
-1.84,2,0.6,35.28,-6.79,29.75
-1.61,1.67,0.41,25.48,-14.49,27.3
-1.42,1.04,0.18,-10.43,-13.65,20.51
-1.21,0.53,0.05,-40.46,-14.56,12.18
-1,0.11,-0.07,-61.11,-18.06,3.29
-0.77,-0.18,-0.15,-75.39,-10.99,-11.83
-0.62,-0.55,-0.27,-81.83,4.69,-28.98
-0.52,-0.77,-0.32,-77.21,26.74,-48.79
-0.73,-0.77,-0.18,-65.8,36.61,-60.2
-1.27,-0.51,0.09,-41.86,32.27,-46.76
-1.71,-0.19,0.36,-28.28,13.93,-21.98
-1.69,-0.02,0.23,-22.54,2.52,-6.79
-1.46,0.13,0.11,-6.65,22.68,-27.23
-1.29,0.23,0.15,9.66,56.63,-66.5
-1.16,0.19,0.21,27.93,100.03,-100.24
-1.04,-0.08,0.1,54.88,124.74,-103.67
-0.93,-0.47,-0.17,100.24,124.95,-80.15
-0.74,-1.06,-0.69,167.86,102.97,-28.35
-0.35,-1.26,-0.64,154.07,73.01,-50.12
0,-1.83,-0.52,115.36,57.19,-65.31
-0.05,-1.75,-0.6,74.62,63.07,-65.38
-0.59,-1.15,-0.68,47.39,60.48,-54.67
-0.7,-0.67,-0.44,54.04,53.48,-56.35
-0.93,-0.4,-0.29,54.6,62.65,-48.23
-1.16,-0.24,-0.29,53.41,61.04,-40.32
-1.28,-0.14,-0.35,48.02,51.87,-35.35
-1.25,-0.09,-0.43,35.49,43.47,-38.01
-1.01,-0.05,-0.56,27.44,36.05,-45.22
-1.05,-0.01,-0.64,24.36,29.82,-52.15
-1.01,-0.03,-0.67,27.79,21.56,-59.36
-0.96,-0.04,-0.54,36.05,17.85,-63.91
-0.92,0,-0.39,39.69,13.72,-71.54
-0.94,-0.03,-0.35,40.25,11.69,-77.28
-0.98,-0.16,-0.42,39.69,5.81,-77.63
-0.92,-0.27,-0.48,39.55,-6.79,-75.18
-0.82,-0.31,-0.42,40.39,-8.96,-70.91
-0.8,-0.15,-0.27,13.44,-9.94,-70.49
-0.79,-0.36,-0.32,12.67,-4.48,-66.57
-0.84,-0.3,-0.21,19.39,2.52,-65.17
-0.93,-0.23,-0.16,19.32,4.27,-64.33
-0.93,-0.24,-0.14,20.86,0.91,-62.3
-0.91,-0.21,-0.13,28,6.65,-59.29
-0.92,-0.2,-0.16,32.13,11.62,-54.88
-0.95,-0.15,-0.22,29.75,10.29,-52.99
-0.92,-0.19,-0.18,38.92,20.09,-48.51
-0.95,-0.16,-0.18,43.54,21.7,-48.09
-0.94,-0.16,-0.19,45.64,23.03,-47.18
-0.91,-0.18,-0.2,46.83,26.6,-46.76
-0.9,-0.2,-0.22,48.93,29.82,-47.04
-0.9,-0.22,-0.23,52.43,31.57,-47.95
-0.89,-0.24,-0.24,53.06,31.99,-49
-0.88,-0.26,-0.26,52.43,31.71,-50.12
-0.88,-0.27,-0.28,49.91,30.66,-52.22
-0.89,-0.26,-0.31,45.29,28.98,-55.16
-0.92,-0.25,-0.32,37.94,25.06,-57.54
-0.96,-0.23,-0.3,31.08,22.12,-58.94
-1,-0.19,-0.28,26.95,20.79,-59.08
-1.01,-0.13,-0.28,26.88,19.88,-57.47
-1.01,-0.08,-0.32,29.19,18.2,-54.46
-1.03,-0.11,-0.37,34.02,16.8,-50.89
-1.06,-0.17,-0.38,34.79,14.7,-47.53
-1.11,-0.19,-0.35,28.7,10.78,-41.86
-1.17,-0.17,-0.32,22.82,7.35,-35.14
-1.19,-0.17,-0.29,24.22,3.78,-28.77
-1.2,-0.16,-0.27,26.32,-1.12,-23.45
-1.19,-0.17,-0.27,26.32,-8.26,-19.32
-1.18,-0.21,-0.24,24.08,-15.05,-12.53
-1.17,-0.2,-0.19,19.11,-16.73,-5.25
-1.26,-0.14,-0.07,16.1,-19.53,2.73
-1.43,-0.02,0.1,23.94,-24.22,11.41
-1.54,0.1,0.28,43.47,-28.7,21.56
-1.58,0.24,0.33,70.14,-32.62,33.67
-1.58,0.42,0.25,90.02,-35.77,50.75
-1.58,0.56,0.14,89.6,-43.61,64.54
-1.58,0.58,0.24,73.08,-66.15,79.38
-1.44,0.49,0.34,60.48,-76.23,89.81
-1.19,0.25,0.28,49.21,-68.95,103.39
-1.08,0.05,-0.09,39.2,-55.23,111.72
-1.07,-0.09,-0.22,20.58,-47.95,117.95
-1.04,-0.27,-0.29,9.87,-45.5,114.8
-1.02,-0.57,-0.26,13.86,-31.85,113.26
-1.06,-0.8,-0.28,25.27,-10.92,118.86
-1.15,-0.9,-0.39,30.45,-7.63,123.55
-1.19,-0.96,-0.48,25.48,-12.81,131.04
-1.31,-0.9,-0.49,26.32,-21.63,133.63
-1.29,-0.92,-0.3,27.23,-27.86,131.88
-1.27,-1.01,-0.26,35.63,-28.63,121.52
-1.18,-1.06,-0.18,65.45,-27.23,115.57
-1.01,-0.82,-0.25,88.48,-28.42,117.74
-0.9,-0.72,-0.28,97.79,-28.07,123.97
-0.9,-0.7,-0.17,93.73,-25.34,128.73
-0.87,-0.63,-0.08,80.36,-19.81,131.74
-0.82,-0.59,-0.13,71.54,-19.39,135.8
-0.8,-0.49,-0.09,58.73,-21.63,134.47
-0.64,-0.47,-0.06,43.26,-25.9,133.7
-0.68,-0.5,-0.04,27.51,-27.86,132.16
-0.7,-0.51,-0.06,16.1,-31.01,125.09
-0.69,-0.51,-0.08,4.62,-34.16,116.83
-0.69,-0.49,-0.11,-4.76,-35.49,105.49
-0.67,-0.47,-0.14,-14.77,-37.94,88.69
-0.57,-0.5,-0.19,-19.32,-38.22,78.12
-0.47,-0.51,-0.2,-21.84,-34.93,69.09
-0.41,-0.53,-0.21,-24.36,-31.43,61.6
-0.36,-0.56,-0.22,-26.39,-26.25,55.09
-0.32,-0.59,-0.23,-23.87,-19.25,48.37
-0.29,-0.6,-0.24,-19.11,-13.23,40.46
-0.28,-0.62,-0.25,-9.87,-7.91,30.38
-0.3,-0.57,-0.24,0.63,-2.24,22.26
-0.34,-0.54,-0.23,12.39,9.38,11.2
-0.39,-0.5,-0.2,18.41,17.15,0.14
-0.55,-0.46,-0.14,26.74,21.7,-5.88
-0.7,-0.3,-0.08,32.76,23.38,-4.41
-0.83,-0.02,-0.16,29.47,27.65,7.98
-1.03,0.45,-0.2,25.27,30.73,37.94
-1.25,0.81,-0.22,5.88,22.47,57.75
-1.42,1.02,-0.18,-14.63,5.25,63.77
-1.54,1.03,0.19,14.63,-13.3,52.08
-1.66,1.11,1.08,40.25,-23.1,25.27
-1.93,1.38,1.48,34.65,-40.32,9.1
-1.68,1.58,0.85,22.75,-38.36,5.74
-1.51,1.29,0.51,5.18,-14.14,7
-1.46,0.84,0.25,-5.67,-8.47,4.76
-1.2,0.45,0.07,-19.74,-7.7,1.82
-0.95,0.16,-0.06,-35.98,-1.05,-3.15
-0.81,-0.14,-0.34,-46.48,10.92,-17.92
-0.67,-0.47,-0.4,-45.78,21.98,-39.48
-0.54,-0.67,-0.38,-36.96,35.98,-67.41
-0.63,-0.57,-0.24,-17.71,70,-65.1
-1.08,-0.27,-0.06,10.01,52.99,-49.77
-1.31,-0.16,0.03,19.46,43.61,-37.73
-1.39,-0.29,0.16,28.77,35.21,-40.04
-1.34,-0.29,0.2,27.37,35.7,-49.77
-1.32,-0.18,0.18,26.81,50.96,-72.8
-1.18,-0.11,0.16,29.82,64.4,-88.2
-1.03,-0.14,-0.01,65.03,85.33,-82.04
-1,-0.23,-0.14,94.43,100.03,-61.32
-0.96,-0.64,-0.3,121.17,100.94,-27.58
-0.64,-0.91,-0.47,122.64,86.94,-16.94
-0.32,-1.27,-0.54,123.06,87.08,-35.84
-0.28,-1.49,-0.6,128.52,92.96,-49.63
-0.49,-1.21,-0.63,126.21,85.82,-44.24
-0.73,-0.71,-0.57,123.41,59.36,-40.04
-0.81,-0.38,-0.46,104.02,55.65,-38.22
-0.96,-0.19,-0.44,77.77,58.59,-34.58
-1.04,-0.1,-0.44,62.79,55.02,-32.27
-1.12,-0.06,-0.47,48.23,45.99,-32.97
-1.16,0.12,-0.51,32.06,34.02,-38.78
-1.12,0.02,-0.57,22.12,27.16,-45.36
-1.07,0.02,-0.6,19.25,17.29,-52.85
-1,-0.02,-0.52,30.73,15.75,-58.87
-0.98,-0.01,-0.42,47.32,14.07,-65.8
-0.97,-0.03,-0.37,52.85,9.17,-71.82
-0.99,-0.07,-0.4,56.56,4.13,-74.34
-1,-0.11,-0.46,49.35,-5.32,-72.87
-0.83,-0.24,-0.46,46.41,-8.89,-68.39
-0.76,-0.32,-0.35,34.3,0.14,-66.71
-0.8,-0.3,-0.3,39.9,3.22,-67.06
-0.85,-0.31,-0.25,32.69,3.43,-65.24
-0.89,-0.27,-0.22,30.45,-2.38,-63.49
-0.86,-0.27,-0.14,34.09,-2.45,-59.99
-0.89,-0.21,-0.13,36.82,3.71,-57.89
-0.94,-0.14,-0.16,36.82,7.14,-57.12
-0.96,-0.13,-0.19,32.27,9.03,-56.7
-0.96,-0.16,-0.25,31.43,10.99,-56.56
-0.95,-0.21,-0.3,30.31,13.86,-56.35
-0.95,-0.22,-0.29,24.78,8.75,-55.79
-0.89,-0.18,-0.22,27.02,17.22,-56.84
-0.89,-0.16,-0.16,29.54,17.99,-56.7
-0.87,-0.16,-0.13,34.16,20.93,-57.54
-0.86,-0.21,-0.12,39.62,25.27,-57.12
-0.87,-0.26,-0.13,44.24,27.72,-56.42
-0.89,-0.28,-0.21,43.05,27.16,-56.7
-0.94,-0.23,-0.28,38.71,24.71,-56.7
-0.98,-0.14,-0.31,34.72,22.68,-57.12
-1,-0.08,-0.33,32.62,22.19,-57.47
-1,-0.03,-0.35,33.11,20.79,-56.84
-1.01,-0.02,-0.37,31.57,19.32,-56.49
-1.05,-0.06,-0.42,29.4,15.4,-55.86
-1.08,-0.13,-0.46,27.02,10.5,-53.9
-1.1,-0.14,-0.42,19.88,8.05,-49.56
-1.24,-0.11,-0.34,8.05,0.21,-43.33
-1.29,-0.11,-0.25,-2.31,-10.71,-36.75
-1.25,-0.11,-0.18,-3.99,-21.56,-31.22
-1.2,-0.14,-0.12,-2.87,-28.28,-25.34
-1.16,-0.15,-0.05,-2.17,-31.43,-17.78
-1.2,-0.1,0.04,-4.83,-32.34,-5.88
-1.32,0.01,0.19,8.75,-34.79,2.31
-1.51,0.12,0.36,31.57,-35.98,12.53
-1.62,0.28,0.45,74.55,-37.1,26.74
-1.61,0.47,0.38,101.92,-39.55,42.42
-1.6,0.65,0.32,104.51,-50.33,55.93
-1.6,0.67,0.38,92.82,-64.12,75.04
-1.48,0.59,0.21,79.73,-68.6,86.59
-1.32,0.44,-0.02,64.26,-64.82,96.18
-1.24,0.3,-0.22,41.51,-58.66,100.38
-1.16,-0.03,-0.36,2.87,-60.41,108.29
-1.04,-0.25,-0.39,-20.65,-56.7,107.87
-1.02,-0.6,-0.51,-32.41,-36.96,113.68
-1.08,-0.92,-0.54,-16.59,-25.13,126.49
-1.12,-1.04,-0.56,-4.55,-18.48,134.96
-1.22,-1.21,-0.67,-0.77,-18.83,145.04
-1.37,-1.14,-0.68,16.03,-25.06,146.86
-1.39,-1.07,-0.59,28,-34.23,140.35
-1.3,-1.05,-0.47,39.69,-35.42,127.75
-1.16,-0.85,-0.38,61.25,-31.36,126.49
-1.09,-0.54,-0.29,70.28,-34.23,125.86
-1.04,-0.44,-0.04,62.72,-28.91,122.85
-0.91,-0.49,-0.01,45.15,-22.12,122.43
-0.84,-0.55,-0.11,32.34,-17.43,125.23
-0.81,-0.55,-0.08,11.69,-24.08,127.82
-0.79,-0.53,-0.04,-5.25,-30.8,127.89
-0.71,-0.54,0,-13.93,-37.17,126.14
-0.64,-0.59,-0.03,-16.52,-41.02,123.2
-0.64,-0.59,-0.01,-24.43,-43.26,118.09
-0.62,-0.57,-0.04,-29.19,-42.98,109.69
-0.6,-0.53,-0.11,-34.72,-43.12,101.08
-0.56,-0.51,-0.14,-41.23,-42.98,87.71
-0.51,-0.51,-0.17,-44.94,-40.67,77.07
-0.46,-0.53,-0.18,-43.61,-37.87,67.55
-0.41,-0.56,-0.18,-42.35,-34.93,58.8
-0.35,-0.57,-0.16,-43.82,-30.94,48.02
-0.32,-0.61,-0.17,-45.15,-25.83,38.08
-0.29,-0.66,-0.2,-40.39,-20.09,29.75
-0.28,-0.69,-0.23,-34.72,-16.03,23.31
-0.32,-0.68,-0.24,-16.31,-10.57,18.83
-0.34,-0.63,-0.24,-6.09,0.28,11.48
-0.5,-0.63,-0.15,9.52,13.44,4.2
-0.66,-0.44,-0.13,25.62,19.32,2.73
-0.77,-0.03,-0.19,28.98,24.22,10.5
-0.95,0.33,-0.13,25.27,27.58,29.68
-1.26,0.67,0.17,12.39,21.7,43.68
-1.56,0.8,0.55,-5.04,-0.84,36.19
-1.71,0.88,0.68,-26.04,-40.53,13.37
-1.56,1.15,0.92,-23.73,-42.63,0.42
-1.58,1.61,0.88,-2.38,-23.38,-4.62
-1.8,1.98,0.62,14.14,-6.93,0
-1.71,1.53,0.39,10.71,0.56,6.93
-1.38,0.96,0.14,-6.51,-1.61,11.48
-1.2,0.55,-0.04,-29.4,-3.64,13.86
-1.04,0.22,-0.16,-48.37,-0.28,10.15
-0.83,-0.08,-0.4,-53.62,8.47,-1.33
-0.67,-0.39,-0.36,-56.7,26.6,-22.89
-0.89,-0.72,0.03,-52.78,30.38,-52.08
-1.45,-0.48,0.44,-37.59,12.32,-36.19
-1.67,-0.01,0.4,-27.02,15.26,-13.16
-1.36,0.09,0.18,0.98,26.11,-22.47
-1.05,-0.02,0.15,22.61,57.12,-48.86
-0.95,-0.03,0.13,31.78,85.82,-85.82
-0.82,-0.23,0.08,39.9,109.9,-109.41
-0.71,-0.78,-0.3,91.91,113.33,-86.1
-0.71,-1.19,-0.4,156.52,101.78,-39.27
-0.56,-1.32,-0.47,140.84,71.4,-27.93
-0.18,-1.7,-0.46,87.01,54.32,-63.21
-0.11,-1.92,-0.46,73.99,75.18,-75.11
-0.63,-1.32,-0.6,69.44,92.96,-67.2
-0.8,-0.71,-0.65,80.92,81.9,-60.27
-1.03,-0.41,-0.49,95.06,78.96,-53.76
-1.16,-0.19,-0.47,82.18,59.43,-50.75
-1.12,-0.12,-0.42,68.25,57.12,-46.55
-1.09,-0.09,-0.44,58.24,52.43,-46.55
-1.08,-0.02,-0.49,43.05,46.41,-51.66
-1.09,0.03,-0.59,26.25,36.05,-59.92
-1.13,0.05,-0.65,13.51,20.44,-72.03
-1.06,0.01,-0.58,10.29,10.08,-80.92
-0.97,-0.01,-0.46,21.84,5.6,-87.29
-0.98,0.05,-0.34,26.39,2.8,-94.5
-1,-0.03,-0.34,27.93,-0.56,-96.32
-0.99,-0.07,-0.36,29.4,-6.44,-95.27
-0.93,-0.23,-0.46,20.58,-12.46,-91.21
-0.79,-0.33,-0.4,20.16,-13.3,-88.55
-0.82,-0.34,-0.36,18.27,-10.29,-88.62
-0.86,-0.32,-0.31,7.56,-12.46,-87.5
-0.87,-0.28,-0.21,0.7,-12.46,-85.47
-0.83,-0.26,-0.11,-6.65,-10.92,-82.11
-0.86,-0.21,-0.04,-14.49,-8.33,-80.43
-0.91,-0.16,-0.07,-17.08,-6.3,-79.66
-0.85,-0.26,-0.04,-9.8,5.04,-74.48
-0.91,-0.19,-0.06,1.05,12.6,-74.48
-0.94,-0.18,-0.09,-1.33,15.61,-72.38
-0.9,-0.24,-0.11,13.86,21.91,-72.24
-0.91,-0.25,-0.14,21.28,26.53,-72.1
-0.92,-0.29,-0.18,26.67,29.96,-72.1
-0.93,-0.31,-0.2,30.94,28,-72.45
-0.92,-0.29,-0.2,37.24,28.7,-72.31
-0.91,-0.26,-0.21,40.53,28.35,-71.54
-0.93,-0.23,-0.25,39.48,27.72,-69.79
-1.02,-0.18,-0.28,35.49,24.15,-69.09
-1.09,-0.09,-0.3,25.06,19.81,-68.46
-1.14,0.01,-0.29,16.59,13.58,-66.71
-1.16,0.09,-0.25,6.3,7.84,-65.8
-1.19,0.11,-0.23,-4.9,1.54,-64.12
-1.18,0.08,-0.24,-32.97,-3.29,-61.18
-1.17,0,-0.25,-26.6,-7.14,-55.86
-1.2,-0.08,-0.2,-31.36,-7.98,-48.86
-1.27,-0.13,-0.11,-27.51,-11.9,-41.16
-1.27,-0.19,-0.02,-13.3,-18.76,-30.94
-1.22,-0.18,0.06,5.32,-26.04,-21.91
-1.2,-0.18,0.06,24.85,-26.88,-11.83
-1.27,-0.12,0.06,49.42,-25.83,-1.4
-1.42,0.01,0.1,62.23,-26.67,8.96
-1.57,0.18,0.14,74.41,-31.71,21.49
-1.66,0.41,0.16,84.63,-43.26,38.64
-1.66,0.65,0.18,90.44,-57.61,51.38
-1.62,0.84,0.31,86.87,-76.72,65.03
-1.48,0.84,0.24,76.65,-78.26,75.04
-1.35,0.66,-0.11,45.64,-70.35,85.19
-1.24,0.47,-0.39,11.9,-63.98,93.66
-1.17,0.26,-0.56,-23.45,-67.34,101.36
-1.06,0,-0.52,-56.49,-66.29,107.73
-0.99,-0.52,-0.52,-81.69,-60.97,120.68
-0.92,-0.94,-0.56,-65.73,-40.81,133.7
-1.03,-1.2,-0.71,-45.43,-21.21,145.53
-1.35,-1.23,-0.76,-35.42,-30.52,153.23
-1.44,-1.2,-0.61,-23.66,-37.59,151.55
-1.52,-1.21,-0.55,-6.02,-37.03,136.08
-1.4,-1.07,-0.51,30.73,-31.5,125.37
-1.17,-0.81,-0.46,37.38,-26.18,129.5
-1.15,-0.58,-0.37,39.76,-22.4,134.82
-1.15,-0.46,-0.34,18.13,-28.14,132.93
-0.93,-0.5,-0.23,3.29,-28.28,129.78
-0.81,-0.5,-0.23,-4.9,-25.13,130.76
-0.75,-0.57,-0.17,-18.13,-21.91,129.43
-0.71,-0.6,-0.17,-26.11,-23.59,127.47
-0.68,-0.6,-0.15,-33.18,-29.26,126.84
-0.65,-0.6,-0.1,-35.07,-34.86,122.64
-0.62,-0.58,-0.11,-37.1,-37.87,116.83
-0.61,-0.58,-0.09,-42.77,-37.38,110.11
-0.57,-0.6,-0.08,-48.65,-35.77,102.69
-0.57,-0.57,-0.13,-57.19,-35.42,96.04
-0.57,-0.54,-0.14,-66.92,-34.58,84.35
-0.51,-0.55,-0.17,-74.2,-32.83,72.8
-0.46,-0.55,-0.19,-76.3,-28.91,57.75
-0.4,-0.58,-0.21,-77.63,-21.35,44.66
-0.35,-0.62,-0.21,-78.12,-20.16,34.23
-0.3,-0.64,-0.2,-78.26,-18.2,26.04
-0.27,-0.65,-0.2,-72.8,-14.84,20.23
-0.29,-0.64,-0.23,-61.39,-9.38,21.84
-0.34,-0.65,-0.19,-50.75,-7.14,19.6
-0.46,-0.68,-0.07,-36.68,-2.66,18.62
-0.66,-0.56,-0.01,-23.66,10.15,19.04
-0.78,-0.37,-0.06,-10.36,19.04,19.74
-0.9,-0.07,-0.12,-6.02,27.3,32.2
-1.1,0.3,0.09,-8.82,26.81,42.56
-1.34,0.5,0.44,-18.2,20.23,35.42
-1.53,0.66,0.45,-31.15,-9.94,17.92
-1.51,0.94,0.68,-22.89,-18.06,5.18
-1.6,1.38,0.77,0.56,-8.47,6.51
-1.87,1.82,0.62,28.21,-3.29,19.11
-1.78,1.91,0.35,35.21,-1.05,23.87
-1.54,1.37,0.18,16.73,-1.4,31.01
-1.35,0.82,0.08,-6.37,-5.6,31.29
-1.06,0.2,0.03,-26.04,-7.63,23.31
-0.82,-0.12,-0.12,-51.38,-2.38,9.87
-0.58,-0.5,-0.25,-64.26,9.38,-17.22
-0.43,-0.77,-0.28,-65.31,20.51,-46.41
-0.51,-0.86,-0.22,-64.4,36.12,-67.06
-0.98,-0.6,0.03,-50.47,34.37,-64.96
-1.42,-0.34,0.36,-24.57,25.13,-51.66
-1.52,-0.14,0.42,3.01,25.76,-43.82
-1.29,0.01,0.22,17.92,47.04,-52.85
-1.18,0.07,0.13,27.44,80.01,-82.25
-1.26,-0.05,0.04,42.7,113.54,-109.76
-1.37,-0.44,-0.23,71.33,134.05,-96.53
-1.29,-0.95,-0.4,128.1,133.84,-46.97
-0.87,-1.13,-0.62,126.56,84.49,-21.56
-0.29,-1.35,-0.58,120.75,56,-50.75
-0.07,-1.57,-0.53,113.12,70.21,-72.87
-0.24,-1.38,-0.65,95.27,83.86,-72.03
-0.55,-0.85,-0.83,89.32,75.81,-60.34
-0.68,-0.53,-0.58,80.15,49.42,-59.08
-0.84,-0.38,-0.38,64.12,55.37,-57.4
-1.07,-0.26,-0.34,46.34,53.2,-57.96
-1.17,-0.23,-0.39,21.98,42.35,-55.44
-1.14,-0.17,-0.46,7.49,36.33,-57.61
-1.13,-0.1,-0.56,-3.5,25.62,-63.28
-1.12,-0.06,-0.6,-5.67,15.82,-73.29
-1.04,-0.14,-0.56,13.51,13.37,-80.99
-1.01,-0.12,-0.44,29.89,11.34,-88.83
-1.03,-0.1,-0.4,34.86,2.45,-95.76
-1.03,-0.1,-0.41,25.62,-2.59,-100.45
-0.9,-0.32,-0.48,43.26,-7,-98.35
-0.89,-0.27,-0.41,55.79,-13.86,-94.08
-0.83,-0.26,-0.34,42,-19.95,-88.55
-0.8,-0.2,-0.25,23.31,-20.44,-84.7
-0.79,-0.14,-0.14,11.34,-16.31,-79.03
-0.79,-0.1,-0.06,-1.68,-9.45,-71.05
-0.89,-0.06,-0.09,-14.7,-3.78,-65.94
-0.91,-0.15,-0.13,-6.72,4.97,-62.3
-0.91,-0.17,-0.07,6.3,20.58,-59.5
-0.99,-0.19,-0.06,11.69,26.11,-58.66
-1.02,-0.18,-0.04,25.13,24.57,-59.71
-0.98,-0.18,-0.06,36.96,24.99,-60.83
-0.95,-0.18,-0.11,37.87,25.97,-61.32
-0.91,-0.19,-0.14,37.03,24.71,-62.23
-0.88,-0.21,-0.13,35.91,25.34,-62.79
-0.87,-0.25,-0.16,32.48,25.62,-62.58
-0.88,-0.29,-0.22,31.85,27.3,-62.72
-0.93,-0.3,-0.26,31.29,27.37,-64.33
-0.96,-0.26,-0.3,28.7,25.41,-66.15
-1,-0.19,-0.33,26.53,21,-67.13
-1.02,-0.11,-0.36,23.94,18.34,-67.55
-1.05,-0.03,-0.37,19.95,14.77,-67.06
-1.09,0.03,-0.35,13.86,10.01,-64.89
-1.14,0.04,-0.33,6.09,2.17,-63.35
-1.14,0.01,-0.3,-5.04,-5.25,-59.78
-1.14,-0.03,-0.23,-21.77,-8.12,-52.5
-1.19,-0.06,-0.15,-29.33,-10.64,-44.17
-1.22,-0.1,-0.06,-28.7,-15.75,-35.28
-1.22,-0.15,-0.01,-18.48,-20.93,-25.13
-1.22,-0.18,0.03,-3.71,-25.34,-17.64
-1.28,-0.17,0.07,13.02,-29.26,-9.52
-1.37,-0.12,0.08,33.18,-28.56,-2.03
-1.45,-0.01,0.08,55.72,-28.21,6.93
-1.55,0.16,0.23,72.94,-35.21,19.95
-1.65,0.37,0.24,88.34,-51.38,32.76
-1.68,0.57,0.26,95.48,-66.57,49.28
-1.64,0.71,0.27,86.38,-75.6,63.49
-1.55,0.7,0.01,63.98,-74.69,77.14
-1.38,0.57,-0.2,33.95,-70.28,87.22
-1.27,0.36,-0.36,-12.04,-69.79,98.63
-1.17,0.15,-0.49,-30.8,-74.76,104.09
-0.98,-0.16,-0.51,-64.75,-73.99,113.26
-0.9,-0.58,-0.49,-61.39,-65.94,122.5
-0.94,-0.83,-0.56,-50.82,-43.61,134.4
-1.06,-0.97,-0.7,-43.75,-28.77,139.72
-1.28,-1.02,-0.81,-44.03,-34.16,144.55
-1.35,-1.03,-0.78,-34.65,-35.98,143.85
-1.42,-1.04,-0.65,-16.8,-34.86,128.73
-1.39,-0.93,-0.5,-7.35,-30.66,121.87
-1.21,-0.74,-0.38,5.11,-30.1,126.98
-1.19,-0.61,-0.34,18.83,-29.54,131.11
-1.15,-0.56,-0.32,10.64,-32.55,127.33
-0.97,-0.57,-0.26,3.78,-35.42,127.75
-0.77,-0.59,-0.22,-6.16,-32.13,129.92
-0.75,-0.63,-0.19,-9.17,-25.76,128.87
-0.72,-0.61,-0.2,-15.61,-25.62,127.89
-0.68,-0.57,-0.16,-22.19,-29.33,126.35
-0.62,-0.54,-0.1,-29.47,-32.2,123.27
-0.59,-0.53,-0.1,-37.38,-35.07,118.86
-0.61,-0.52,-0.14,-48.58,-38.57,112.56
-0.59,-0.53,-0.13,-57.26,-41.02,101.5
-0.58,-0.5,-0.11,-66.92,-40.95,90.23
-0.54,-0.52,-0.14,-77.42,-38.08,77.7
-0.5,-0.57,-0.19,-85.47,-34.79,64.75
-0.43,-0.61,-0.2,-91.77,-28.14,50.26
-0.37,-0.68,-0.23,-90.51,-21.56,38.92
-0.31,-0.71,-0.24,-88.06,-19.04,29.4
-0.26,-0.74,-0.21,-86.38,-17.36,20.93
-0.22,-0.74,-0.22,-74.27,-13.3,15.54
-0.22,-0.76,-0.22,-57.75,-8.47,14
-0.25,-0.76,-0.18,-44.38,-1.12,10.43
-0.4,-0.84,-0.05,-22.61,6.37,7.56
-0.57,-0.67,-0.02,-2.38,19.95,7.98
-0.74,-0.38,-0.13,12.18,28.42,16.24
-0.87,0,-0.2,18.48,34.23,33.53
-1.1,0.37,0.01,5.74,43.61,49.07
-1.34,0.58,0.39,-7,42.84,47.25
-1.63,0.78,0.32,-21,13.44,30.52
-1.62,1.04,0.7,-10.15,-6.16,17.22
-1.85,1.7,0.92,19.32,2.52,23.24
-2.02,2.24,0.7,49.56,2.45,32.27
-1.87,2.15,0.35,47.81,1.54,28.42
-1.57,1.39,0.15,22.82,-2.73,32.48
-1.31,0.78,0.08,-10.29,-7.42,29.26
-1.03,0.14,0.06,-34.58,-11.06,21.7
-0.82,-0.15,-0.03,-56.56,-10.78,8.05
-0.52,-0.53,-0.26,-71.68,-2.03,-14.91
-0.31,-0.85,-0.38,-67.34,11.13,-43.33
-0.3,-0.95,-0.33,-68.39,28,-69.23
-0.77,-0.72,-0.02,-59.22,35.77,-71.68
-1.27,-0.42,0.31,-47.88,31.5,-55.72
-1.63,-0.11,0.44,-15.96,21.91,-26.46
-1.58,0.08,0.3,5.25,18.2,-27.79
-1.31,0.12,0.2,19.46,55.65,-54.88
-1.27,0.16,0.1,32.9,91.07,-89.6
-1.41,0.06,0.07,52.85,124.46,-108.92
-1.48,-0.23,-0.11,77.07,141.12,-94.57
-1.33,-1.03,-0.5,129.57,133.49,-32.48
-0.7,-1.33,-0.74,148.26,78.19,-25.34
-0.19,-1.51,-0.47,148.26,48.72,-61.04
0.04,-1.63,-0.45,104.09,63.49,-77.91
-0.23,-1.38,-0.64,81.06,77.07,-67.97
-0.52,-0.76,-0.85,72.03,48.09,-65.59
-0.7,-0.51,-0.52,57.47,47.95,-61.11
-0.86,-0.35,-0.48,45.71,56.14,-60.62
-1.12,-0.28,-0.48,24.5,54.39,-59.57
-1.22,-0.28,-0.5,9.8,46.2,-57.54
-1.2,-0.22,-0.5,-17.64,37.8,-60.13
-1.2,-0.12,-0.51,-5.95,24.78,-67.34
-1.16,-0.12,-0.55,6.79,14.7,-76.79
-1.06,-0.12,-0.47,23.66,12.04,-84.98
-1.01,-0.04,-0.37,32.76,7.21,-95.41
-1,-0.11,-0.39,28.49,3.01,-99.75
-0.99,-0.16,-0.44,33.39,-3.22,-100.45
-0.88,-0.23,-0.45,44.66,-8.68,-95.48
-0.82,-0.32,-0.42,50.54,-11.34,-94.64
-0.76,-0.29,-0.29,35.35,-7.56,-89.74
-0.76,-0.28,-0.27,19.53,-7.28,-84.28
-0.8,-0.29,-0.21,12.74,-2.52,-78.61
-0.84,-0.23,-0.13,8.4,1.33,-75.74
-0.89,-0.18,-0.08,5.46,2.73,-75.88
-0.91,-0.2,-0.11,11.34,7.28,-75.11
-0.9,-0.2,-0.05,24.64,22.54,-71.61
-0.97,-0.18,-0.1,27.16,21.7,-72.38
-0.99,-0.21,-0.15,27.23,21.14,-72.24
-0.96,-0.18,-0.14,33.39,23.38,-72.87
-0.95,-0.21,-0.16,33.81,27.23,-74.48
-0.93,-0.26,-0.18,34.79,28.49,-76.02
-0.89,-0.29,-0.2,33.88,27.79,-76.51
-0.87,-0.31,-0.22,34.44,27.3,-76.72
-0.87,-0.29,-0.25,32.76,25.48,-77.14
-0.88,-0.25,-0.27,30.94,22.96,-76.72
-0.93,-0.19,-0.3,28.63,20.3,-76.37
-1.02,-0.13,-0.31,25.34,16.45,-75.95
-1.1,-0.05,-0.31,22.05,13.44,-74.2
-1.15,0.04,-0.29,16.59,9.31,-71.61
-1.19,0.11,-0.26,11.41,7.28,-69.16
-1.23,0.12,-0.25,2.87,3.57,-66.22
-1.26,0.04,-0.27,-5.25,-1.68,-60.48
-1.25,-0.02,-0.22,-16.1,-7.07,-53.13
-1.28,-0.04,-0.12,-25.34,-12.11,-43.12
-1.32,-0.04,-0.02,-21.56,-17.01,-34.72
-1.27,-0.04,0.07,-7.42,-24.22,-26.46
-1.23,-0.07,0.12,8.68,-30.31,-17.29
-1.25,-0.11,0.13,27.16,-30.52,-3.29
-1.35,-0.05,0.14,47.46,-29.19,9.17
-1.5,0.08,0.13,67.97,-26.88,23.03
-1.69,0.3,0.05,79.87,-37.03,40.18
-1.75,0.53,0.05,75.95,-59.29,57.89
-1.72,0.73,0.17,67.62,-78.82,71.54
-1.63,0.79,0.27,57.05,-87.01,87.22
-1.46,0.6,0.01,50.54,-77.49,102.34
-1.32,0.31,-0.3,32.34,-67.34,109.27
-1.17,0.1,-0.45,3.29,-63.56,118.3
-0.97,-0.14,-0.48,-45.15,-61.11,119.84
-0.91,-0.45,-0.47,-65.66,-53.9,129.29
-0.96,-0.79,-0.51,-54.81,-47.32,129.5
-0.98,-1,-0.49,-26.39,-23.66,134.54
-1.18,-1.14,-0.65,-5.88,-14.28,138.04
-1.46,-1.08,-0.7,-17.78,-51.31,138.46
-1.42,-1.14,-0.57,-16.94,-49.42,132.02
-1.35,-1.04,-0.46,-1.26,-38.85,122.57
-1.21,-0.77,-0.4,3.99,-35.21,122.64
-1.09,-0.53,-0.27,9.8,-25.2,128.38
-1.11,-0.48,-0.33,1.4,-25.34,132.51
-1.04,-0.6,-0.43,-7,-30.73,131.46
-0.92,-0.63,-0.37,-0.7,-34.72,130.69
-0.8,-0.67,-0.33,-2.03,-37.59,132.79
-0.73,-0.65,-0.26,-9.87,-34.93,133.84
-0.71,-0.64,-0.19,-14.77,-31.99,133.14
-0.71,-0.58,-0.18,-17.01,-32.41,131.04
-0.69,-0.53,-0.15,-21.7,-33.25,123.97
-0.66,-0.53,-0.16,-26.32,-34.93,116.9
-0.6,-0.52,-0.16,-35.07,-38.01,110.25
-0.62,-0.51,-0.14,-44.94,-37.45,102.13
-0.62,-0.51,-0.15,-54.81,-35,91
-0.59,-0.54,-0.19,-60.97,-33.95,79.1
-0.52,-0.58,-0.22,-66.36,-32.55,67.13
-0.44,-0.58,-0.21,-75.46,-28.7,55.51
-0.37,-0.6,-0.19,-80.85,-22.82,44.31
-0.33,-0.61,-0.2,-84.07,-17.85,33.39
-0.29,-0.62,-0.22,-83.79,-16.8,25.2
-0.27,-0.65,-0.22,-75.32,-14.98,20.02
-0.31,-0.65,-0.17,-60.34,-14.14,19.67
-0.32,-0.68,-0.11,-48.44,-11.06,15.61
-0.43,-0.72,0.03,-34.09,-3.29,14.91
-0.58,-0.56,0.05,-15.05,11.13,18.34
-0.75,-0.28,-0.06,-0.84,22.96,26.46
-0.93,0.05,-0.15,3.15,31.01,41.37
-1.12,0.38,0,-2.87,35.21,51.66
-1.33,0.61,0.21,-18.13,29.96,45.29
-1.48,0.75,0.26,-30.1,-0.42,19.67
-1.43,1.01,0.64,-23.31,-7.7,6.09
-1.73,1.45,0.78,-9.03,-3.85,-1.19
-1.9,1.84,0.63,6.58,-5.11,11.62
-1.76,1.87,0.33,15.96,-7.28,16.66
-1.48,1.32,0.09,0,-7.77,23.38
-1.3,0.79,0.05,-23.45,-9.38,21.98
-1.08,0.2,0.03,-47.74,-10.92,14.14
-0.84,-0.11,-0.1,-70.42,-7.77,2.8
-0.59,-0.42,-0.25,-81.83,7.21,-16.73
-0.43,-0.74,-0.3,-79.1,19.53,-43.05
-0.68,-0.87,-0.08,-76.58,26.25,-66.29
-1.3,-0.57,0.32,-63.28,10.36,-60.55
-1.63,-0.17,0.51,-49.7,0.98,-18.13
-1.66,0.19,0.39,-18.76,5.81,-19.74
-1.34,0.23,0.19,9.59,36.26,-44.45
-1.21,0.24,0.14,31.71,91.07,-90.79
-1.25,0.06,0.11,54.46,131.88,-117.67
-1.28,-0.36,-0.12,90.02,144.62,-94.78
-1.19,-1.17,-0.62,160.93,128.94,-9.52
-0.46,-1.32,-0.78,178.08,65.31,-16.17
0.05,-1.9,-0.48,158.48,41.72,-68.67
0.21,-2.04,-0.51,104.93,67.97,-82.32
-0.29,-1.39,-0.74,65.66,82.81,-67.34
-0.67,-0.85,-0.75,65.87,62.58,-69.44
-0.84,-0.57,-0.51,64.4,55.44,-65.45
-1.06,-0.35,-0.38,51.03,55.86,-61.32
-1.24,-0.27,-0.38,36.4,48.72,-58.17
-1.3,-0.25,-0.39,23.03,44.1,-56.49
-1.24,-0.2,-0.44,12.67,39.55,-60.76
-1.22,-0.1,-0.53,6.44,28.84,-70
-1.19,0,-0.56,5.25,17.22,-80.99
-1.06,-0.05,-0.55,17.64,11.55,-92.47
-0.96,-0.09,-0.47,38.5,8.82,-99.54
-0.97,-0.05,-0.41,43.89,2.87,-105.21
-0.99,-0.03,-0.35,35.91,-4.06,-105.84
-0.91,-0.13,-0.41,24.92,-13.79,-102.55
-0.79,-0.18,-0.35,19.25,-16.31,-98.84
-0.72,-0.24,-0.26,12.32,-8.75,-92.75
-0.79,-0.22,-0.22,2.24,-10.08,-84.77
-0.88,-0.19,-0.16,-8.33,-12.04,-78.54
-0.91,-0.16,-0.09,-14.7,-8.12,-74.69
-0.92,-0.12,-0.08,-13.09,-2.1,-75.18
-0.94,-0.11,-0.08,-7.63,0.56,-73.99
-0.89,-0.15,0,-4.97,8.47,-71.19
-0.92,-0.16,0.01,7.7,23.59,-69.58
-0.99,-0.16,-0.05,14.7,22.89,-69.44
-0.99,-0.19,-0.07,23.52,23.59,-69.37
-0.95,-0.22,-0.11,26.32,25.69,-70
-0.9,-0.25,-0.14,29.68,28,-71.05
-0.89,-0.31,-0.18,27.93,28.07,-72.31
-0.86,-0.38,-0.19,26.6,28.21,-72.8
-0.87,-0.39,-0.23,25.55,28.07,-73.85
-0.9,-0.35,-0.27,24.29,25.9,-75.04
-0.95,-0.27,-0.32,22.82,23.66,-76.02
-1.01,-0.19,-0.36,18.9,20.86,-76.79
-1.07,-0.1,-0.37,14.84,15.96,-76.09
-1.13,-0.02,-0.33,9.03,9.8,-75.25
-1.17,0.05,-0.28,0.91,4.34,-73.5
-1.17,0.05,-0.26,-8.61,-1.54,-69.23
-1.16,0.03,-0.23,-16.1,-5.11,-62.58
-1.18,-0.02,-0.15,-21.56,-7.91,-51.52
-1.23,-0.04,-0.08,-1.54,-11.27,-43.05
-1.24,-0.09,-0.03,-4.83,-14.63,-34.79
-1.23,-0.11,-0.03,7.98,-18.83,-25.69
-1.27,-0.12,-0.04,19.11,-25.2,-16.66
-1.32,-0.11,-0.02,32.34,-30.17,-4.55
-1.45,-0.02,0.09,48.58,-37.17,5.67
-1.53,0.15,0.23,65.59,-40.04,15.19
-1.58,0.35,0.21,87.78,-42.63,29.05
-1.6,0.67,0.18,96.04,-51.31,46.9
-1.59,0.83,0.28,79.73,-71.82,59.57
-1.46,0.81,0.31,63.42,-79.38,70.21
-1.33,0.62,-0.02,44.8,-68.04,80.15
-1.26,0.41,-0.36,16.87,-62.72,88.76
-1.18,0.24,-0.49,-17.57,-64.54,94.43
-1.01,-0.08,-0.48,-58.59,-65.52,103.74
-0.96,-0.44,-0.5,-86.73,-56.21,116.83
-0.94,-0.89,-0.55,-75.04,-40.11,128.66
-1,-1.15,-0.67,-53.76,-23.24,142.8
-1.32,-1.21,-0.75,-31.92,-23.59,148.89
-1.5,-1.14,-0.67,-26.74,-35.35,152.81
-1.51,-1.2,-0.46,-9.31,-36.05,143.57
-1.51,-1.04,-0.45,18.76,-27.3,125.23
-1.35,-0.91,-0.4,37.66,-22.26,123.83
-1.1,-0.7,-0.38,51.52,-16.45,131.67
-1.12,-0.66,-0.32,40.88,-20.09,136.08
-1.06,-0.57,-0.27,18.97,-25.55,133.07
-0.85,-0.55,-0.13,14.91,-26.6,131.39
-0.73,-0.59,-0.02,5.81,-21,128.94
-0.66,-0.64,-0.05,-0.49,-18.69,127.26
-0.66,-0.6,-0.04,-7.77,-23.17,126.84
-0.66,-0.57,0.01,-16.8,-29.96,121.52
-0.56,-0.6,0,-22.75,-32.27,116.55
-0.57,-0.56,-0.06,-31.99,-34.3,111.86
-0.54,-0.61,-0.1,-40.25,-36.4,107.73
-0.55,-0.6,-0.12,-43.33,-37.73,98.56
-0.55,-0.56,-0.14,-45.5,-36.68,88.2
-0.52,-0.54,-0.17,-52.36,-33.88,79.87
-0.44,-0.55,-0.18,-63.49,-28.7,70.84
-0.4,-0.57,-0.21,-65.17,-20.37,59.57
-0.37,-0.62,-0.37,-61.95,-13.09,48.51
-0.34,-0.65,-0.26,-59.15,-9.66,39.13
-0.3,-0.67,-0.25,-54.04,-6.86,28.28
-0.28,-0.69,-0.26,-40.25,-2.87,25.97
-0.31,-0.64,-0.27,-23.1,4.06,23.73
-0.41,-0.67,-0.18,-11.83,9.24,19.46
-0.54,-0.63,-0.05,-1.26,15.68,16.24
-0.67,-0.47,-0.12,5.04,19.53,15.4
-0.78,-0.19,-0.21,2.31,21.63,22.12
-1.05,0.29,-0.1,-7.21,31.57,42
-1.38,0.64,0.24,-26.11,32.62,49.35
-1.74,0.84,0.46,-28.56,-22.82,32.55
-1.68,0.91,0.87,-25.97,-46.06,16.1
-1.64,1.4,1,14.14,-33.18,14.91
-1.71,1.94,0.75,42.21,-16.38,15.4
-1.77,2.05,0.4,39.06,-5.32,18.48
-1.59,1.47,0.24,17.92,-3.36,26.04
-1.39,0.78,0.11,-13.86,-9.03,30.66
-1.18,0.28,-0.04,-39.48,-14.77,25.9
-0.86,-0.03,-0.13,-60.97,-7.07,14.07
-0.68,-0.35,-0.25,-73.99,1.05,-6.72
-0.49,-0.69,-0.31,-68.25,11.13,-30.52
-0.5,-0.81,-0.22,-66.01,25.9,-53.2
-1.01,-0.63,0.09,-57.47,24.92,-52.22
-1.52,-0.29,0.44,-28.84,17.43,-38.92
-1.56,-0.07,0.42,4.06,36.26,-32.48
-1.28,0.05,0.15,24.57,63.91,-45.71
-1.14,0.11,0.05,33.67,90.93,-81.62
-1.15,-0.15,-0.1,50.75,121.03,-109.34
-1.09,-0.72,-0.34,113.82,126.07,-97.51
-1.07,-1.43,-0.5,154.7,116.62,-28.42
-0.76,-1.38,-0.5,125.09,64.33,-36.05
-0.13,-1.74,-0.32,93.52,41.02,-73.43
-0.13,-1.76,-0.44,86.73,73.22,-85.19
-0.51,-1.19,-0.7,78.96,85.54,-70.7
-0.67,-0.78,-0.71,91.21,73.85,-60.69
-0.85,-0.43,-0.56,98,72.87,-59.64
-1.03,-0.3,-0.49,72.87,61.11,-53.97
-1.09,-0.31,-0.42,58.24,60.48,-53.48
-1.09,-0.26,-0.42,47.88,53.97,-54.95
-1.06,-0.2,-0.46,31.85,43.89,-59.15
-1.09,-0.14,-0.54,21.7,32.97,-65.17
-1.14,-0.08,-0.61,15.61,21.63,-72.45
-1.07,-0.1,-0.61,23.94,11.76,-84.98
-0.98,-0.14,-0.52,41.3,9.87,-91.28
-1.01,-0.07,-0.41,38.43,5.6,-96.53
-1.02,-0.13,-0.45,36.19,-0.84,-98.49
-0.95,-0.2,-0.48,43.12,-12.95,-97.93
-0.85,-0.19,-0.4,37.38,-18.27,-95.55
-0.74,-0.28,-0.33,25.34,-12.74,-93.66
-0.73,-0.26,-0.27,15.75,-9.03,-88.06
-0.8,-0.22,-0.22,6.37,-9.45,-82.81
-0.83,-0.19,-0.14,-1.89,-8.33,-80.15
-0.87,-0.18,-0.11,-7.35,-4.34,-79.45
-0.92,-0.18,-0.12,-3.36,0.49,-78.61
-0.92,-0.19,-0.06,1.89,6.58,-74.55
-0.95,-0.18,-0.04,7.63,18.41,-73.15
-1.04,-0.14,0.01,22.89,20.37,-71.61
-1.05,-0.12,0.01,32.83,18.76,-68.74
-1,-0.09,-0.04,38.57,21.56,-64.4
-0.95,-0.04,-0.11,38.71,25.55,-62.3
-0.93,-0.07,-0.17,35.42,28.42,-61.18
-0.9,-0.16,-0.19,34.02,31.36,-61.6
-0.94,-0.27,-0.21,35.91,32.41,-61.81
-0.96,-0.27,-0.27,35.35,29.96,-64.68
-0.98,-0.21,-0.32,33.18,25.97,-66.15
-1.01,-0.14,-0.35,29.05,21.98,-67.34
-1.04,-0.09,-0.38,18.97,16.73,-66.5
-1.09,-0.04,-0.36,12.46,9.52,-64.4
-1.12,0.04,-0.3,6.3,2.31,-62.16
-1.14,0.06,-0.26,-1.12,-2.03,-60.9
-1.16,0,-0.27,-10.99,-5.81,-59.08
-1.17,-0.1,-0.27,-20.23,-10.99,-54.46
-1.21,-0.13,-0.21,-31.15,-15.47,-47.53
-1.24,-0.13,-0.12,-32.62,-20.09,-41.23
-1.22,-0.14,-0.06,-23.17,-23.94,-31.92
-1.21,-0.16,-0.04,-9.73,-27.02,-24.5
-1.23,-0.19,-0.02,3.78,-31.92,-15.89
-1.3,-0.17,0.01,19.81,-32.97,-5.6
-1.41,-0.05,0.05,30.1,-33.6,3.36
-1.51,0.07,0.04,45.64,-35.21,14.42
-1.59,0.26,-0.01,58.73,-41.79,27.44
-1.63,0.54,-0.01,56.56,-58.73,45.99
-1.5,0.71,0.08,47.88,-78.96,60.2
-1.55,0.78,0.17,37.31,-84.98,74.41
-1.42,0.63,0.03,20.58,-80.64,86.17
-1.29,0.37,-0.29,-2.31,-75.46,98.98
-1.01,0.17,-0.38,-22.75,-71.89,108.01
-0.89,-0.05,-0.39,-48.23,-63.98,114.38
-0.86,-0.36,-0.39,-71.05,-55.51,123.76
-0.86,-0.63,-0.38,-63.56,-42.98,129.29
-0.94,-0.88,-0.46,-48.65,-21.35,136.36
-1.19,-0.96,-0.61,-32.69,-12.6,137.97
-1.36,-1,-0.71,-38.43,-28.56,139.79
-1.55,-1.05,-0.71,-44.38,-45.08,133.35
-1.47,-1.06,-0.55,-33.53,-43.82,122.5
-1.31,-0.88,-0.32,-15.19,-36.82,122.08
-1.22,-0.66,-0.27,0.14,-38.01,126
-1.12,-0.66,-0.3,22.75,-38.5,127.68
-1.08,-0.72,-0.32,22.26,-43.54,129.5
-0.93,-0.79,-0.26,22.75,-48.65,131.25
-0.78,-0.75,-0.11,19.95,-43.68,133.42
-0.75,-0.73,-0.11,13.02,-39.83,134.26
-0.73,-0.64,-0.15,8.54,-42.42,132.93
-0.67,-0.57,-0.08,4.27,-45.15,128.52
-0.61,-0.55,-0.06,-8.89,-42.77,125.16
-0.61,-0.56,-0.12,-22.12,-42.77,118.65
-0.6,-0.57,-0.15,-35.49,-44.59,107.87
-0.57,-0.59,-0.17,-41.09,-44.1,95.62
-0.55,-0.53,-0.17,-51.1,-42.7,81.76
-0.5,-0.54,-0.21,-59.15,-39.97,68.18
-0.4,-0.58,-0.23,-65.38,-34.16,53.62
-0.32,-0.63,-0.23,-69.51,-23.8,44.45
-0.27,-0.66,-0.28,-69.23,-19.46,35
-0.22,-0.72,-0.28,-65.66,-14.77,23.73
-0.19,-0.78,-0.28,-52.99,-9.45,16.59
-0.24,-0.75,-0.28,-33.11,-2.94,10.22
-0.28,-0.76,-0.19,-17.85,2.94,2.24
-0.38,-0.73,-0.06,1.68,10.92,-3.36
-0.5,-0.58,-0.1,11.83,17.29,-4.06
-0.73,-0.3,-0.18,19.32,25.13,5.25
-0.87,0.09,-0.05,13.72,32.34,21.91
-1.23,0.59,0.44,-19.53,43.12,42.84
-1.68,0.87,0.51,-31.29,29.96,37.45
-1.95,1.16,0.5,-37.87,-23.24,27.72
-1.98,1.87,0.89,1.26,-25.69,43.12
-2.12,2.68,0.8,71.96,-16.66,42.91
-1.98,2.39,0.6,63.35,-11.2,24.08
-1.58,1.28,0.28,26.32,-8.61,26.88
-1.28,0.61,0.01,-16.87,-10.78,28.35
-0.98,0.06,-0.13,-50.75,-10.01,27.02
-0.73,-0.25,-0.29,-71.82,0.7,14.7
-0.48,-0.59,-0.42,-75.6,11.13,-11.13
-0.34,-0.81,-0.25,-68.04,26.6,-45.57
-0.82,-0.6,0.04,-67.97,26.11,-46.9
-1.49,-0.29,0.49,-67.62,-0.77,-31.92
-1.56,-0.06,0.43,-45.78,3.64,-18.69
-1.3,-0.02,0.2,-10.01,32.2,-33.32
-1.22,0.01,0.13,10.64,70.63,-71.05
-1.15,-0.02,0.08,20.79,105.49,-113.05
-1.08,-0.48,-0.08,51.1,126.07,-115.29
-1.06,-1.15,-0.41,131.25,108.57,-46.76
-0.71,-1.33,-0.62,168,79.17,-13.93
-0.19,-1.64,-0.43,120.05,44.66,-62.44
0.05,-2,-0.41,82.95,63.77,-84.91
-0.23,-1.69,-0.81,83.58,87.36,-75.53
-0.56,-0.92,-0.81,85.05,77.42,-65.8
-0.77,-0.48,-0.66,88.76,77.98,-62.79
-1.12,-0.25,-0.56,67.48,61.18,-58.31
-1.1,-0.22,-0.43,47.39,60.27,-56.42
-1.15,-0.21,-0.43,32.9,51.8,-54.39
-1.14,-0.2,-0.44,19.95,42.35,-54.39
-1.17,-0.15,-0.49,10.08,32.48,-60.06
-1.22,-0.05,-0.56,1.61,19.95,-72.38
-1.12,-0.05,-0.54,7.63,9.31,-81.62
-0.99,-0.07,-0.47,23.17,7.42,-89.53
-0.96,-0.06,-0.4,33.32,4.83,-93.87
-0.98,-0.04,-0.36,25.55,2.03,-96.18
-0.98,-0.12,-0.4,19.32,-4.83,-96.39
-0.93,-0.19,-0.44,23.17,-14.7,-94.78
-0.81,-0.24,-0.36,26.39,-17.36,-91.84
-0.75,-0.3,-0.29,20.93,-14.42,-87.43
-0.8,-0.29,-0.23,12.95,-7.98,-83.16
-0.86,-0.27,-0.16,-2.24,-6.79,-78.75
-0.91,-0.24,-0.09,-10.85,-5.18,-76.72
-0.97,-0.18,-0.07,-9.17,-7.42,-77.28
-0.98,-0.09,-0.09,-6.79,-9.1,-76.23
-0.92,-0.12,-0.01,2.31,0.42,-72.03
-0.94,-0.09,-0.03,4.34,14.56,-69.02
-0.98,-0.11,-0.03,11.13,18.06,-69.16
-0.98,-0.17,-0.06,14.63,19.53,-68.74
-0.92,-0.24,-0.1,19.67,24.22,-68.04
-0.88,-0.27,-0.15,21.77,26.81,-67.48
-0.86,-0.29,-0.18,21.28,26.81,-67.62
-0.85,-0.29,-0.19,21.21,26.6,-67.41
-0.86,-0.3,-0.21,21.49,25.13,-67.55
-0.89,-0.31,-0.25,23.38,23.17,-68.04
-0.93,-0.3,-0.29,23.24,22.4,-69.23
-0.99,-0.27,-0.33,22.12,20.86,-70.21
-1.04,-0.23,-0.37,20.51,17.85,-70.35
-1.1,-0.14,-0.36,17.29,13.23,-69.65
-1.13,-0.06,-0.31,12.11,9.31,-68.25
-1.14,-0.01,-0.26,8.4,6.93,-66.08
-1.15,0.01,-0.24,3.5,3.43,-62.02
-1.16,-0.04,-0.22,-0.91,-0.77,-53.48
-1.2,-0.08,-0.17,-4.27,-3.78,-44.8
-1.24,-0.08,-0.14,-3.08,-7.63,-37.52
-1.24,-0.09,-0.13,6.51,-13.16,-30.8
-1.22,-0.1,-0.15,12.6,-19.74,-23.45
-1.24,-0.1,-0.16,15.47,-26.74,-14.14
-1.29,-0.1,-0.12,18.13,-32.83,-5.53
-1.36,-0.02,0.04,22.75,-38.15,5.81
-1.44,0.05,0.25,37.52,-39.69,14.21
-1.49,0.18,0.29,72.45,-34.86,24.57
-1.46,0.39,0.11,103.46,-32.48,34.3
-1.51,0.6,-0.06,83.72,-41.79,50.89
-1.54,0.72,-0.04,55.3,-65.38,62.16
-1.51,0.68,0,37.66,-76.44,75.53
-1.38,0.53,-0.11,14.14,-75.88,87.29
-1.17,0.26,-0.28,-19.39,-72.52,98.7
-0.94,0,-0.4,-55.79,-69.58,109.2
-0.83,-0.43,-0.41,-78.47,-60.27,119.63
-0.91,-0.84,-0.36,-63.56,-46.83,124.95
-1.02,-1.07,-0.37,-37.94,-19.74,131.74
-1.21,-1.17,-0.37,-13.86,-1.4,136.36
-1.5,-1.12,-0.45,4.13,-6.86,132.3
-1.53,-1.2,-0.5,16.1,-18.48,128.1
-1.44,-1.17,-0.46,39.83,-21.98,119.42
-1.19,-0.99,-0.32,55.93,-13.02,116.76
-1.03,-0.68,-0.33,45.5,-5.81,123.55
-0.93,-0.64,-0.38,43.96,-11.55,129.85
-1,-0.53,-0.38,32.13,-22.4,130.41
-0.89,-0.45,-0.21,19.88,-27.37,129.08
-0.75,-0.49,-0.03,9.38,-22.89,128.73
-0.71,-0.46,-0.04,-3.08,-18.9,128.52
-0.71,-0.46,-0.06,-17.36,-18.97,126.63
-0.68,-0.5,-0.06,-28.91,-23.52,123.41
-0.67,-0.52,-0.07,-36.61,-26.67,118.51
-0.67,-0.56,-0.1,-43.75,-27.23,112.21
-0.65,-0.54,-0.14,-48.37,-28.07,106.12
-0.64,-0.52,-0.17,-52.57,-29.54,100.38
-0.63,-0.49,-0.17,-56.91,-28.28,92.96
-0.63,-0.47,-0.18,-61.88,-26.18,85.75
-0.62,-0.5,-0.23,-65.31,-25.2,77.49
-0.57,-0.57,-0.24,-66.22,-24.92,70.35
-0.51,-0.59,-0.24,-66.15,-22.19,63.91
-0.45,-0.62,-0.21,-66.5,-15.47,56.7
-0.42,-0.67,-0.22,-62.44,-8.12,48.09
-0.4,-0.71,-0.21,-59.08,-3.36,35.56
-0.38,-0.71,-0.2,-51.52,1.05,24.43
-0.37,-0.72,-0.19,-41.37,7,16.59
-0.38,-0.66,-0.19,-29.12,13.44,10.36
-0.44,-0.68,-0.16,-16.94,20.44,4.62
-0.6,-0.66,-0.04,1.75,25.27,0.14
-0.76,-0.52,-0.01,14.7,31.01,17.85
-0.87,-0.2,-0.01,27.37,37.31,13.44
-0.99,0.15,-0.03,32.62,38.29,32.27
-1.21,0.41,0.03,26.74,34.51,46.55
-1.32,0.56,0.09,17.36,22.54,46.13
-1.37,0.75,0.14,14.91,14.35,36.96
-1.46,1.03,0.4,24.92,16.73,28.91
-1.62,1.49,0.71,40.32,19.46,30.87
-1.86,2.11,0.78,55.23,12.53,41.79
-1.86,2.12,0.57,55.65,-14.07,38.22
-1.52,1.38,0.29,30.17,-16.94,30.31
-1.31,0.77,0.08,-10.08,-13.51,19.88
-1.04,0.31,0.04,-35.98,-8.19,10.36
-0.88,-0.01,-0.06,-51.87,-3.22,-0.98
-0.69,-0.5,-0.24,-60.62,3.57,-27.86
-0.6,-0.82,-0.19,-64.05,15.33,-58.52
-1.12,-0.87,0.22,-54.67,1.61,-67.97
-1.69,-0.56,0.6,-36.19,-6.86,-38.78
-1.9,0.02,0.31,-35,-4.83,0.77
-1.6,0.17,-0.12,-12.95,13.16,2.87
-1.3,0.13,-0.03,15.61,46.34,-51.1
-1.02,0.07,0.12,42.14,84.49,-90.02
-0.78,-0.24,0.02,70.49,119.14,-99.19
-0.6,-0.72,-0.41,124.04,112.7,-66.43
-0.6,-1.07,-0.76,214.41,83.86,-9.87
-0.15,-1.29,-0.83,198.59,65.24,-26.32
0.17,-1.84,-0.51,130.13,57.26,-76.65
0.06,-2.02,-0.63,64.12,72.66,-65.24
-0.66,-1.04,-0.56,34.65,73.5,-58.31
-0.8,-0.76,-0.33,49.35,70,-50.82
-1.11,-0.42,-0.27,74.13,73.08,-44.03
-1.33,-0.23,-0.36,69.16,59.71,-33.46
-1.29,-0.18,-0.39,68.53,53.06,-30.31
-1.21,-0.12,-0.45,63.42,52.22,-34.72
-1.13,-0.05,-0.55,49.07,47.95,-45.01
-1.08,-0.03,-0.66,44.38,37.24,-52.99
-1.05,-0.01,-0.69,44.8,24.78,-59.01
-1,-0.02,-0.59,46.55,16.8,-66.43
-0.92,-0.05,-0.44,49.98,10.43,-71.61
-0.94,-0.08,-0.33,52.5,6.58,-75.46
-0.96,-0.11,-0.31,50.19,3.92,-76.44
-0.95,-0.18,-0.38,42.56,-1.05,-73.22
-0.84,-0.27,-0.4,41.79,-3.01,-68.25
-0.83,-0.3,-0.42,40.18,-3.29,-65.8
-0.78,-0.29,-0.35,37.94,2.38,-62.3
-0.84,-0.24,-0.29,37.59,7.28,-60.13
-0.91,-0.21,-0.25,41.02,7.28,-60.55
-0.91,-0.2,-0.2,45.99,9.31,-61.53
-0.91,-0.21,-0.18,52.29,11.9,-60.34
-0.93,-0.16,-0.16,52.5,10.5,-59.22
-0.92,-0.17,-0.18,52.15,10.08,-58.45
-0.95,-0.16,-0.22,45.01,11.48,-57.4
-0.97,-0.18,-0.29,40.25,13.44,-57.82
-1.55,0.77,0.27,-23.31,-2.17,26.46
-1.49,0.99,0.54,-11.83,-8.75,15.4
-1.65,1.52,0.76,12.39,-2.52,15.89
-1.92,2.02,0.65,30.52,0.07,24.08
-1.83,1.87,0.35,30.87,-0.7,23.31
-1.5,1.21,0.08,11.83,-3.15,26.25
-1.26,0.67,-0.01,-30.73,-5.04,23.66
-1.02,0.19,-0.04,-37.87,-3.78,19.67
-0.78,-0.12,-0.14,-56.42,2.87,8.82
-0.58,-0.43,-0.25,-62.23,10.5,-30.03
-0.38,-0.75,-0.29,-62.37,22.68,-48.72
-0.43,-0.8,-0.14,-63.77,44.66,-70.84
-1.2,-0.54,0.15,-50.61,36.54,-67.69
-1.65,-0.24,0.47,-35.98,13.44,-43.12
-1.7,0.19,0.31,-13.16,11.41,-16.45
-1.46,0.22,0.13,6.37,41.58,-33.74
-1.33,0.19,0.14,24.78,83.09,-77.14
-1.34,0.05,0.11,52.36,120.68,-106.61
-1.23,-0.25,-0.02,81.34,137.83,-93.03
-1.06,-1.02,-0.61,162.75,121.52,-24.29
-0.54,-1.15,-0.7,186.62,78.12,-17.22
-0.06,-1.7,-0.52,133.63,58.52,-66.08
0.16,-2.09,-0.52,88.13,73.85,-86.59
-0.37,-1.58,-0.72,70.07,70.28,-70.63
-0.62,-0.83,-0.69,55.44,44.38,-72.31
-0.71,-0.57,-0.43,48.16,50.26,-63.14
-1.07,-0.3,-0.36,35.21,54.11,-59.78
-1.23,-0.27,-0.4,16.8,45.22,-55.09
-1.24,-0.26,-0.48,6.93,41.23,-53.27
-1.19,-0.17,-0.53,1.75,38.85,-58.94
-1.18,-0.11,-0.61,1.68,28.49,-68.88
-1.12,-0.12,-0.63,13.37,19.74,-77.56
-1.03,-0.16,-0.51,33.25,15.33,-86.52
-0.98,-0.11,-0.35,38.22,8.4,-93.66
-0.99,-0.05,-0.32,37.38,-0.42,-98
-0.99,-0.12,-0.42,33.25,-7.49,-99.19
-0.86,-0.23,-0.44,39.69,-10.64,-94.71
-0.83,-0.28,-0.43,32.2,-16.1,-92.54
-0.76,-0.26,-0.3,23.1,-11.06,-88.69
-0.82,-0.28,-0.24,6.09,-8.54,-81.9
-0.9,-0.27,-0.18,-3.5,-10.08,-78.68
-0.9,-0.24,-0.07,-3.85,-4.41,-76.09
-0.95,-0.06,-0.12,-11.83,-6.09,-76.51
-0.84,-0.19,-0.04,-2.73,4.55,-70.35
-0.9,-0.08,-0.04,17.15,17.01,-70.28
-0.97,-0.11,-0.1,10.92,16.45,-66.64
-0.95,-0.13,-0.06,17.64,16.94,-65.24
-0.93,-0.16,-0.06,20.86,22.54,-64.05
-0.92,-0.2,-0.09,26.25,26.6,-63.84
-0.9,-0.24,-0.13,30.87,30.31,-64.26
-0.89,-0.3,-0.18,34.65,32.06,-64.75
-0.9,-0.31,-0.21,37.17,31.64,-65.87
-0.91,-0.29,-0.24,37.31,30.03,-67.13
-0.95,-0.26,-0.28,37.03,27.86,-68.32
-1,-0.19,-0.32,33.53,24.71,-69.16
-1.04,-0.13,-0.36,29.54,22.26,-69.23
-1.09,-0.04,-0.39,24.92,17.08,-67.2
-1.11,0.04,-0.37,20.16,13.02,-64.4
-1.13,0.07,-0.34,13.51,8.61,-59.78
-1.15,0.04,-0.34,5.6,3.01,-56.98
-1.15,-0.01,-0.31,-6.65,-4.2,-51.73
-1.19,-0.06,-0.23,-19.46,-5.32,-44.31
-1.25,-0.12,-0.18,-25.27,-7.84,-37.03
-1.28,-0.16,-0.1,-21.21,-16.24,-31.92
-1.25,-0.23,-0.02,-10.92,-24.64,-26.11
-1.2,-0.32,0,4.83,-24.43,-17.57
-1.22,-0.3,0.01,22.82,-23.45,-10.57
-1.32,-0.17,0.02,39.55,-21.07,-3.08
-1.45,0.02,0.04,51.73,-22.61,6.86
-1.57,0.28,0.07,61.88,-30.45,21.98
-1.61,0.48,0.17,69.02,-46.27,35.07
-1.56,0.65,0.26,70.63,-65.17,48.23
-1.51,0.77,0.35,72.17,-74.34,58.52
-1.45,0.81,0.26,64.82,-75.39,74.97
-1.37,0.64,0.02,46.34,-75.46,87.22
-1.26,0.42,-0.26,14.84,-70.21,96.25
-1.17,0.21,-0.38,-16.31,-66.08,101.22
-1.08,-0.09,-0.43,-66.64,-65.73,107.31
-1.01,-0.49,-0.43,-64.82,-55.86,117.81
-0.97,-0.72,-0.5,-59.99,-40.18,127.19
-0.98,-0.91,-0.6,-46.69,-17.92,135.87
-1.16,-1.06,-0.77,-37.94,-18.41,147.77
-1.34,-1.04,-0.86,-37.1,-32.06,153.65
-1.48,-1.13,-0.75,-17.57,-40.04,147.35
-1.48,-1.11,-0.6,-7.7,-44.73,135.24
-1.26,-0.95,-0.55,16.31,-46.2,131.32
-1.17,-0.66,-0.49,37.03,-49.7,133.56
-1.16,-0.48,-0.23,43.4,-49.77,131.11
-1.01,-0.48,-0.15,27.09,-42.84,129.01
-0.85,-0.56,-0.14,10.85,-32.62,125.72
-0.65,-0.56,-0.18,-0.42,-24.71,126.07
-0.68,-0.56,-0.17,-13.02,-25.13,125.93
-0.68,-0.56,-0.17,-24.99,-30.03,124.46
-0.65,-0.6,-0.13,-28.77,-35,120.47
-0.62,-0.59,-0.05,-30.1,-35.84,114.8
-0.58,-0.57,-0.05,-32.34,-35.91,110.74
-0.61,-0.55,-0.08,-43.05,-36.89,104.02
-0.61,-0.54,-0.09,-51.87,-37.87,96.04
-0.57,-0.58,-0.14,-58.73,-39.97,87.15
-0.54,-0.6,-0.16,-65.87,-39.34,76.23
-0.49,-0.59,-0.18,-75.11,-39.34,66.29
-0.43,-0.56,-0.19,-73.57,-37.87,54.67
-0.36,-0.6,-0.2,-75.25,-30.38,44.66
-0.33,-0.65,-0.22,-72.94,-22.12,32.48
-0.32,-0.73,-0.23,-68.95,-16.31,22.4
-0.32,-0.79,-0.23,-52.43,-12.88,12.39
-0.33,-0.75,-0.23,-38.29,-5.95,8.68
-0.43,-0.72,-0.16,-4.13,4.2,4.76
-0.52,-0.6,-0.08,-6.93,14.35,2.17
-0.63,-0.39,-0.24,-2.73,24.36,-0.28
-0.77,-0.1,-0.16,4.76,32.69,7.84
-1.02,0.41,0.01,0.77,36.89,28.42
-1.32,0.73,0.51,-13.09,19.18,36.19
-1.76,0.85,0.52,-38.43,-14.28,16.17
-1.64,0.94,0.86,-40.04,-38.36,2.87
-1.68,1.52,0.91,10.85,-22.54,3.43
-1.81,1.92,0.59,29.82,-10.22,4.9
-1.78,1.84,0.32,24.29,-1.82,7.42
-1.48,1.24,0.17,8.89,1.4,34.58
-1.26,0.58,0.04,-11.97,-4.2,19.67
-1.06,0.13,-0.1,-28.14,-6.93,15.68
-0.77,-0.2,-0.2,-41.3,3.71,4.55
-0.56,-0.52,-0.33,-49.77,15.4,-17.57
-0.43,-0.72,-0.26,-51.87,33.46,-43.75
-0.74,-0.68,0.03,-48.02,44.52,-52.99
-1.39,-0.25,0.3,-34.37,32.83,-37.1
-1.62,0.04,0.35,-9.87,24.15,-1.68
-1.45,0.14,0.24,12.11,29.89,-26.67
-1.27,0.1,0.19,28.49,58.73,-56.28
-1.17,0.08,0.15,34.09,86.45,-90.44
-1.13,-0.11,0.07,53.97,108.92,-101.08
-1.04,-0.57,-0.33,118.72,106.12,-68.95
-0.93,-1.05,-0.5,163.94,91.63,-7.56
-0.4,-1.22,-0.5,135.73,64.89,-28.7
-0.06,-1.7,-0.42,94.15,65.73,-71.75
-0.17,-1.78,-0.54,78.33,80.57,-76.23
-0.74,-1.15,-0.64,77.42,74.9,-62.79
-0.78,-0.75,-0.52,74.55,63.91,-61.25
-0.95,-0.36,-0.4,72.1,57.89,-58.1
-1.09,-0.25,-0.37,55.37,50.75,-53.06
-1.15,-0.21,-0.39,45.5,47.88,-50.68
-1.18,-0.19,-0.46,34.16,44.52,-51.38
-1.15,-0.1,-0.53,19.88,40.6,-58.38
-1.12,-0.07,-0.65,13.44,30.17,-67.83
-1.1,-0.08,-0.69,17.08,19.11,-78.33
-1.01,-0.13,-0.63,29.12,10.78,-87.5
-0.94,-0.1,-0.45,34.23,4.06,-95.34
-0.97,-0.07,-0.36,28.77,-0.28,-100.45
-0.95,-0.17,-0.34,25.34,-7.28,-100.94
-0.9,-0.27,-0.38,27.93,-15.68,-100.17
-0.86,-0.18,-0.28,10.29,-19.39,-96.53
-0.74,-0.32,-0.26,4.97,-11.55,-93.24
-0.82,-0.21,-0.21,3.01,-10.85,-87.92
-0.89,-0.19,-0.18,-1.26,-11.48,-83.86
-0.89,-0.17,-0.08,-6.44,-4.62,-82.32
-0.91,-0.17,-0.06,-7.7,2.52,-81.13
-0.97,-0.08,-0.1,-7.14,1.19,-81.2
-0.92,-0.22,-0.05,2.45,9.38,-76.51
-0.95,-0.16,-0.04,17.01,17.5,-75.74
-0.98,-0.14,-0.09,14.7,17.36,-73.64
-0.95,-0.14,-0.12,17.85,17.78,-72.31
-0.93,-0.12,-0.11,20.02,20.51,-72.8
-0.92,-0.17,-0.14,20.3,22.47,-72.94
-0.9,-0.23,-0.16,21.28,24.78,-73.15
-0.89,-0.29,-0.17,23.03,25.69,-73.43
-0.9,-0.33,-0.2,23.8,24.99,-74.9
-0.91,-0.31,-0.24,24.29,23.73,-75.04
-0.96,-0.23,-0.29,23.66,20.02,-74.41
-0.99,-0.13,-0.33,21.7,17.85,-72.59
-1.05,-0.04,-0.35,17.78,14.84,-70.21
-1.1,0.03,-0.32,13.51,11.13,-67.97
-1.14,0.08,-0.29,9.24,7.21,-65.38
-1.16,0.01,-0.32,3.99,3.99,-61.95
-1.18,-0.08,-0.35,-7.42,-1.82,-58.38
-1.2,-0.13,-0.3,-18.9,-5.74,-52.29
-1.24,-0.15,-0.24,-25.2,-10.43,-46.06
-1.27,-0.15,-0.15,-22.82,-18.69,-40.39
-1.27,-0.15,-0.04,-15.96,-30.52,-33.95
-1.2,-0.2,0.02,-3.36,-36.47,-25.48
-1.24,-0.19,0.07,19.81,-36.82,-17.22
-1.35,-0.08,0.14,35.63,-35.28,-5.67
-1.47,0.09,0.18,49.98,-33.81,5.32
-1.58,0.29,0.16,69.93,-38.08,18.55
-1.61,0.51,0.14,82.39,-49.63,32.34
-1.61,0.72,0.14,77.98,-63.35,51.38
-1.57,0.87,0.19,66.92,-76.09,64.96
-1.49,0.82,0.05,46.13,-81.69,76.37
-1.34,0.61,-0.18,19.88,-76.79,91.77
-1.21,0.44,-0.37,-9.59,-72.59,105.14
-1.04,0.19,-0.51,-47.81,-72.31,111.09
-0.93,-0.14,-0.46,-76.09,-68.95,123.55
-0.95,-0.63,-0.43,-77.84,-59.36,128.24
-0.96,-0.9,-0.48,-68.11,-30.03,134.82
-1.13,-1.04,-0.6,-44.52,-9.17,142.59
-1.44,-1.04,-0.63,-36.54,-12.67,141.12
-1.59,-1.17,-0.58,-40.04,-26.95,137.69
-1.57,-1.25,-0.57,-18.27,-32.9,129.43
-1.38,-1.15,-0.55,1.33,-27.44,121.31
-1.17,-0.87,-0.55,21.77,-23.59,125.65
-1.15,-0.69,-0.51,30.17,-28.63,130.62
-1.12,-0.54,-0.34,20.65,-39.97,126.7
-0.9,-0.54,-0.18,14.35,-36.61,126.42
-0.77,-0.55,-0.17,1.54,-28.35,126.84
-0.72,-0.54,-0.18,-8.75,-22.54,127.05
-0.7,-0.52,-0.19,-22.05,-22.96,127.61
-0.69,-0.49,-0.2,-37.8,-31.08,126.91
-0.61,-0.54,-0.13,-40.04,-35.07,123.69
-0.6,-0.54,-0.07,-46.62,-35.42,118.86
-0.57,-0.56,-0.1,-54.32,-34.16,111.02
-0.58,-0.56,-0.12,-65.52,-35.07,103.53
-0.57,-0.58,-0.14,-71.4,-35,94.71
-0.54,-0.55,-0.16,-83.58,-35,86.59
-0.53,-0.58,-0.23,-83.16,-36.96,73.78
-0.45,-0.62,-0.22,-86.24,-32.48,63.14
-0.41,-0.65,-0.19,-86.45,-28.07,53.55
-0.34,-0.66,-0.22,-86.45,-22.26,38.71
-0.31,-0.71,-0.21,-82.88,-16.59,27.72
-0.28,-0.75,-0.19,-77.28,-14.63,17.99
-0.27,-0.76,-0.19,-69.3,-7.56,12.32
-0.36,-0.74,-0.18,-55.65,-4.13,11.06
-0.46,-0.78,-0.08,-33.53,-2.87,7.56
-0.57,-0.7,-0.01,-17.92,8.19,7.14
-0.71,-0.49,-0.04,-6.37,19.25,9.03
-0.87,-0.16,-0.06,5.67,27.3,24.36
-1.06,0.38,0.07,-1.47,34.44,40.25
-1.46,0.58,0.35,-10.78,33.6,38.71
-1.6,0.7,0.36,-21.91,7.49,19.39
-1.5,0.84,0.65,-19.88,-10.85,5.46
-1.67,1.43,0.91,6.72,-1.26,7.56
-1.92,2.01,0.69,38.78,6.51,15.05
-1.94,2.13,0.36,49.21,6.58,18.48
-1.65,1.41,0.09,28.21,5.18,25.34
-1.31,0.81,0,-3.22,3.08,27.02
-1.09,0.35,-0.03,-34.72,1.75,26.39
-0.89,-0.08,-0.14,-49.56,5.39,11.76
-0.63,-0.43,-0.26,-60.41,32.55,-14.84
-0.62,-0.69,-0.09,-66.85,27.09,-52.85
-1.21,-0.71,0.38,-67.62,18.27,-61.74
-1.78,-0.28,0.57,-46.55,8.82,-27.3
-1.81,0.36,0.07,-47.04,6.16,2.52
-1.4,0.37,-0.01,-19.11,20.79,-33.18
-1.11,0.11,0.16,16.03,56.84,-73.71
-0.87,-0.12,0.15,40.74,105.91,-105.91
-0.69,-0.57,-0.17,79.8,109.27,-87.08
-0.67,-1.1,-0.61,196.56,88.27,-21.07
-0.51,-1.28,-0.64,185.99,73.08,-1.61
-0.01,-1.88,-0.58,135.87,50.12,-60.76
0.15,-2.38,-0.57,80.99,64.96,-89.18
-0.37,-1.56,-0.61,50.12,85.82,-70.49
-0.76,-0.88,-0.54,59.64,69.93,-70
-1.05,-0.53,-0.32,72.31,67.2,-58.31
-1.24,-0.18,-0.28,63.49,57.47,-52.99
-1.32,-0.13,-0.32,49.84,45.08,-44.87
-1.29,-0.14,-0.41,45.29,45.78,-44.87
-1.23,-0.11,-0.51,35.56,46.55,-51.38
-1.17,-0.05,-0.64,25.55,42.56,-61.6
-1.13,-0.04,-0.74,28.49,27.65,-72.94
-1.04,-0.07,-0.7,35.77,13.09,-84.42
-0.87,-0.15,-0.54,43.47,3.5,-92.68
-0.87,-0.1,-0.39,44.38,1.4,-98.14
-0.96,-0.11,-0.34,30.87,-9.59,-99.33
-0.89,-0.2,-0.36,20.09,-19.04,-97.02
-0.76,-0.27,-0.3,7.14,-18.27,-92.68
-0.86,-0.35,-0.36,0.7,-15.4,-90.16
-0.83,-0.33,-0.25,0.84,-11.55,-86.38
-0.89,-0.2,-0.16,-10.85,-8.47,-83.79
-0.95,-0.17,-0.14,-11.97,-9.31,-82.67
-0.93,-0.14,-0.08,-6.65,-7.77,-82.46
-0.93,-0.07,-0.06,-8.26,-6.02,-82.6
-0.93,-0.06,-0.07,-9.66,-5.6,-80.15
-0.88,-0.13,-0.08,-2.87,13.86,-76.93
-0.9,-0.19,-0.08,6.23,21.42,-74.76
-0.91,-0.26,-0.1,15.4,23.66,-73.36
-0.89,-0.33,-0.13,19.25,24.57,-72.1
-0.89,-0.34,-0.12,25.55,26.53,-72.38
-0.93,-0.32,-0.12,31.43,25.2,-74.76
-0.89,-0.3,-0.12,36.68,26.32,-75.95
-0.86,-0.28,-0.15,41.23,30.45,-76.51
-0.9,-0.28,-0.22,43.96,28.63,-76.58
-0.96,-0.26,-0.28,44.38,25.9,-75.88
-1,-0.17,-0.32,39.27,23.24,-76.93
-1.05,-0.08,-0.38,32.83,20.16,-75.95
-1.08,0.12,-0.38,26.95,16.87,-72.87
-1.12,0.09,-0.35,19.39,12.25,-70.35
-1.19,0.07,-0.32,12.53,6.51,-67.13
-1.22,-0.01,-0.32,4.55,1.68,-62.51
-1.23,-0.07,-0.28,-3.71,-3.57,-55.44
-1.25,-0.09,-0.21,-9.17,-8.89,-47.6
-1.26,-0.1,-0.13,-6.09,-15.19,-40.74
-1.25,-0.1,-0.06,3.22,-23.59,-34.51
-1.22,-0.13,-0.02,17.22,-27.3,-27.93
-1.22,-0.15,-0.02,31.57,-23.66,-19.18
-1.31,-0.11,-0.05,44.87,-23.87,-10.43
-1.43,-0.02,-0.06,51.66,-27.09,-0.42
-1.54,0.16,-0.05,54.18,-36.33,11.55
-1.59,0.38,-0.03,53.06,-50.19,28.56
-1.6,0.65,0.06,51.17,-64.61,43.05
-1.61,0.78,0.19,46.83,-81.27,55.23
-1.54,0.81,0.31,44.59,-84.77,69.79
-1.4,0.65,0.1,33.11,-77.63,81.34
-1.22,0.4,-0.32,7.84,-66.36,94.01
-1.05,0.18,-0.4,-22.33,-58.03,103.74
-0.95,-0.24,-0.4,-43.47,-54.11,110.88
-0.87,-0.54,-0.41,-55.23,-43.82,116.34
-0.94,-0.8,-0.39,-40.6,-34.93,122.85
-0.98,-0.83,-0.47,-35.63,-21.14,129.43
-1.19,-0.81,-0.59,-25.62,-11.69,132.72
-1.49,-0.8,-0.61,-32.27,-18.48,131.11
-1.54,-0.92,-0.54,-35.91,-28.56,108.78
-1.44,-1.04,-0.43,-19.04,-27.51,119.84
-1.31,-0.86,-0.39,-13.44,-23.52,118.86
-1.14,-0.65,-0.35,-7,-17.71,126.42
-1.11,-0.6,-0.38,-3.57,-20.58,132.72
-1.12,-0.66,-0.4,-1.4,-30.24,134.82
-0.98,-0.66,-0.29,-1.05,-32.62,135.8
-0.86,-0.65,-0.18,-3.15,-31.57,137.06
-0.78,-0.64,-0.11,-12.6,-28.35,139.58
-0.75,-0.6,-0.08,-20.02,-28,140
-0.73,-0.55,-0.04,-27.02,-28.49,136.5
-0.69,-0.52,-0.06,-36.19,-28.7,128.59
-0.65,-0.52,-0.1,-46.48,-30.31,120.26
-0.63,-0.53,-0.13,-53.27,-31.5,111.23
-0.63,-0.51,-0.16,-63.56,-32.76,101.01
-0.59,-0.54,-0.2,-67.55,-34.86,90.79
-0.59,-0.5,-0.15,-78.68,-36.89,76.72
-0.55,-0.55,-0.18,-87.36,-34.51,63.77
-0.49,-0.62,-0.2,-94.08,-32.9,55.51
-0.43,-0.65,-0.23,-93.59,-28.84,46.55
-0.36,-0.67,-0.25,-90.44,-23.45,36.82
-0.29,-0.73,-0.24,-85.96,-19.11,27.79
-0.23,-0.77,-0.22,-78.33,-15.05,16.45
-0.23,-0.78,-0.21,-68.74,-10.64,10.99
-0.31,-0.75,-0.19,-49.07,-7.14,8.4
-0.38,-0.79,-0.12,-27.23,-0.42,6.02
-0.53,-0.74,0.02,-9.1,8.26,6.93
-0.66,-0.53,-0.04,0.84,18.34,10.29
-0.79,-0.21,-0.05,7.98,27.58,21.21
-1.03,0.31,0.1,3.08,32.27,44.31
-1.33,0.61,0.43,-10.5,29.89,51.31
-1.65,0.77,0.41,-20.44,2.24,35
-1.56,0.89,0.52,-20.02,-18.62,15.96
-1.55,1.28,0.78,5.53,-14.77,10.08
-1.82,1.81,0.7,31.64,-3.36,10.57
-1.9,1.94,0.47,35.77,3.08,8.89
-1.56,1.33,0.2,22.19,4.62,14.77
-1.14,0.82,0.04,3.92,0.56,18.76
-1,0.34,-0.07,-9.59,1.75,17.22
-0.8,-0.03,-0.14,-25.27,11.06,8.4
-0.64,-0.39,-0.21,-33.39,18.48,-13.16
-0.49,-0.67,-0.2,-34.23,30.8,-45.71
-0.63,-0.79,0.04,-29.19,45.08,-75.95
-1.25,-0.54,0.31,-9.17,43.4,-60.55
-1.73,-0.16,0.44,-4.97,17.64,-29.68
-1.61,0.11,0.28,7.28,21.98,-13.44
-1.29,0.04,0.13,27.23,47.18,-30.45
-1.22,-0.02,0.11,47.11,86.94,-63.98
-1.25,-0.16,-0.06,75.11,114.73,-85.12
-1.17,-0.6,-0.32,137.48,121.73,-61.74
-1.09,-0.94,-0.53,191.59,104.02,-12.32
-0.46,-1.12,-0.56,170.45,59.78,-23.66
0,-1.51,-0.43,122.36,55.23,-55.37
-0.06,-1.66,-0.4,86.94,72.17,-77.07
-0.42,-1.59,-0.77,87.92,73.29,-60.83
-0.71,-0.78,-0.59,84.42,45.22,-66.92
-0.8,-0.47,-0.37,71.47,45.22,-57.96
-1.05,-0.24,-0.36,56.84,46.2,-56.28
-1.19,-0.18,-0.41,34.93,38.36,-51.94
-1.17,-0.11,-0.46,15.82,35.35,-52.99
-1.13,-0.01,-0.54,-0.28,30.59,-56.63
-1.08,0.01,-0.69,-5.6,24.15,-63.63
-1.04,-0.06,-0.75,9.59,16.17,-73.64
-0.96,-0.14,-0.66,26.81,13.44,-81.2
-0.92,-0.13,-0.49,34.72,7.7,-88.62
-0.95,-0.16,-0.39,33.74,-2.1,-95.13
-0.99,-0.2,-0.34,36.47,-9.94,-96.04
-0.91,-0.29,-0.32,32.62,-17.01,-91.91
-0.91,-0.25,-0.32,24.5,-21.35,-92.05
-0.79,-0.31,-0.23,25.41,-18.55,-84.49
-0.8,-0.27,-0.16,18.97,-12.74,-79.31
-0.89,-0.23,-0.13,14.63,-10.08,-74.48
-0.89,-0.2,-0.06,10.85,-4.9,-70.84
-0.9,-0.21,-0.03,14.21,5.53,-69.09
-0.94,-0.15,-0.06,22.89,8.75,-68.6
-0.94,-0.23,0.02,39.2,19.6,-64.4
-0.99,-0.14,0,56.28,27.23,-63.84
-0.88,-0.08,-0.1,59.36,25.76,-63.63
-0.97,-0.04,-0.2,56.35,25.69,-63.21
-0.99,-0.02,-0.28,46.06,23.59,-64.61
-0.98,-0.04,-0.31,36.47,22.19,-67.27
-0.95,-0.08,-0.33,25.69,17.01,-71.12
-0.92,-0.16,-0.33,16.59,12.39,-74.2
-0.89,-0.23,-0.31,8.33,9.59,-76.51
-0.88,-0.25,-0.3,2.45,7.91,-77.63
-0.88,-0.23,-0.31,-2.8,5.74,-78.82
-0.91,-0.18,-0.32,-7,4.13,-78.33
-0.96,-0.13,-0.31,-7.21,3.85,-77.14
-1,-0.06,-0.27,-6.79,2.59,-74.97
-1.03,-0.01,-0.25,-9.03,1.05,-71.75
-1.05,-0.01,-0.26,-10.71,1.19,-66.85
-1.09,-0.12,-0.3,-11.27,-0.77,-63.49
-1.16,-0.17,-0.31,-14.42,-6.23,-59.43
-1.21,-0.2,-0.31,-27.23,-8.33,-51.38
-1.22,-0.19,-0.24,-22.26,-11.76,-46.13
-1.21,-0.18,-0.14,-11.06,-16.87,-42.21
-1.16,-0.21,-0.08,-1.96,-24.22,-37.73
-1.11,-0.27,-0.04,0.63,-30.73,-29.47
-1.11,-0.28,-0.05,3.78,-30.8,-21.7
-1.22,-0.2,-0.03,11.27,-31.15,-15.12
-1.35,-0.07,0.04,21,-35.28,-7.21
-1.46,0.09,0.15,32.69,-40.11,5.11
-1.53,0.27,0.21,52.5,-45.5,19.53
-1.57,0.45,0.22,69.23,-52.15,51.87
-1.6,0.62,0.21,76.37,-59.43,52.85
-1.59,0.73,0.19,75.53,-69.16,64.05
-1.5,0.68,0.08,64.61,-72.31,78.4
-1.39,0.53,-0.12,39.76,-72.03,90.3
-1.24,0.37,-0.31,5.81,-70.63,100.59
-1.08,0.14,-0.5,-36.05,-66.99,108.92
-0.96,-0.22,-0.49,-60.13,-69.16,115.5
-0.93,-0.47,-0.43,-67.55,-57.26,119.98
-0.96,-0.71,-0.45,-67.83,-36.12,123.62
-1.09,-0.86,-0.55,-51.31,-20.58,127.96
-1.24,-0.95,-0.67,-36.47,-14,130.76
-1.45,-0.96,-0.73,-42.7,-24.08,133.49
-1.52,-1.04,-0.68,-36.89,-37.8,128.8
-1.48,-1.04,-0.53,-23.87,-40.18,115.01
-1.3,-0.75,-0.44,-14.56,-18.48,115.43
-1,-0.65,-0.44,-17.22,-32.27,122.01
-1.03,-0.56,-0.46,0.77,-35.21,127.19
-1.03,-0.57,-0.32,0.63,-36.82,128.66
-0.91,-0.62,-0.25,-5.81,-38.01,131.67
-0.8,-0.63,-0.18,-10.5,-33.46,133.07
-0.79,-0.6,-0.16,-17.92,-31.57,135.17
-0.76,-0.62,-0.17,-23.31,-33.67,134.33
-0.7,-0.58,-0.12,-26.95,-35.84,131.95
-0.69,-0.55,-0.07,-33.46,-35.98,125.44
-0.67,-0.53,-0.06,-41.23,-32.69,115.5
-0.64,-0.54,-0.08,-49.35,-31.15,104.02
-0.6,-0.52,-0.12,-58.66,-31.08,89.67
-0.56,-0.55,-0.16,-66.01,-29.61,78.33
-0.53,-0.51,-0.17,-77.84,-29.82,67.13
-0.5,-0.53,-0.22,-81.27,-31.85,54.53
-0.42,-0.59,-0.17,-88.69,-28.63,45.78
-0.36,-0.61,-0.17,-90.93,-24.15,38.01
-0.31,-0.64,-0.24,-88.62,-19.88,29.89
-0.27,-0.68,-0.23,-86.52,-16.1,18.76
-0.24,-0.73,-0.22,-79.87,-11.9,11.83
-0.3,-0.76,-0.21,-65.59,-9.1,8.96
-0.32,-0.74,-0.16,-43.68,-6.44,4.06
-0.44,-0.78,-0.07,-23.73,0.42,1.47
-0.59,-0.72,0.03,-8.54,10.71,1.89
-0.7,-0.53,-0.05,3.85,20.09,4.9
-0.87,-0.07,-0.05,9.24,31.08,29.4
-1.13,0.4,0.17,3.43,37.94,55.37
-1.45,0.67,0.39,-5.81,36.75,55.37
-1.63,0.83,0.17,-15.05,10.43,37.17
-1.48,1.01,0.38,-6.3,-3.15,24.99
-1.53,1.51,0.72,19.18,7.7,16.73
-1.87,2.06,0.63,36.12,11.13,18.76
-1.89,1.96,0.39,39.76,9.31,17.22
-1.47,1.26,0.07,20.86,6.65,22.12
-1.23,0.69,-0.04,-6.09,4.83,19.39
-1,0.18,-0.1,-35.35,5.46,11.97
-0.75,-0.1,-0.11,-55.02,12.74,1.82
-0.58,-0.33,-0.22,-64.75,21.42,-18.97
-0.39,-0.56,-0.3,-63.49,35.7,-57.05
-0.38,-0.57,-0.21,-57.89,61.04,-79.45
-1.21,-0.41,0.05,-42.7,61.88,-72.38
-1.86,-0.2,0.42,-42.28,18.55,-45.57
-2.04,0.04,0.42,-38.5,-0.49,-9.1
-1.81,0.04,0.15,-13.79,17.78,-11.69
-1.57,-0.01,0.23,13.79,52.43,-50.68
-1.37,-0.08,0.17,36.54,90.65,-84.35
-1.15,-0.55,-0.24,80.57,104.09,-61.25
-0.84,-0.92,-0.51,177.52,83.65,-17.36
-0.3,-1.17,-0.49,193.97,56.77,-19.32
0.11,-1.88,-0.44,175.07,61.67,-74.62
0.07,-2.07,-0.48,84.49,84.14,-94.15
-0.32,-1.6,-0.7,63.7,71.26,-66.99
-0.5,-0.83,-0.66,70.77,45.36,-68.67
-0.81,-0.45,-0.47,54.04,51.87,-56.84
-1.07,-0.21,-0.45,28,51.38,-54.88
-1.22,-0.19,-0.47,13.86,46.48,-48.37
-1.26,-0.15,-0.49,13.23,44.1,-43.75
-1.29,0.03,-0.5,8.75,34.51,-49.28
-1.31,0.08,-0.56,2.87,16.38,-60.2
-1.18,-0.01,-0.58,15.05,9.8,-71.4
-1.07,-0.08,-0.48,40.67,9.8,-83.23
-0.98,-0.08,-0.39,44.87,2.17,-91.84
-0.94,-0.13,-0.41,42.84,-5.39,-95.97
-0.97,-0.13,-0.44,31.85,-10.92,-99.12
-0.87,-0.3,-0.42,31.08,-13.72,-95.83
-0.85,-0.25,-0.39,30.66,-16.31,-97.72
-0.72,-0.36,-0.32,22.19,-16.59,-92.61
-0.72,-0.36,-0.19,9.38,-8.96,-87.43
-0.78,-0.4,-0.12,1.12,-5.95,-80.78
-0.83,-0.38,-0.02,-0.35,-2.03,-75.88
-0.93,-0.32,-0.01,-6.65,-5.18,-73.85
-0.87,-0.29,0.06,24.92,16.31,-71.54
-0.94,-0.2,0.02,42.07,22.33,-69.72
-0.96,-0.15,-0.07,50.4,23.24,-69.09
-0.93,-0.13,-0.17,54.04,25.83,-68.32
-0.92,-0.13,-0.26,49.35,26.6,-68.95
-0.93,-0.15,-0.3,39.13,26.53,-70.84
-0.92,-0.2,-0.33,29.96,24.43,-73.08
-0.92,-0.22,-0.31,26.11,21.28,-75.25
-0.89,-0.22,-0.28,23.38,19.67,-76.93
-0.88,-0.22,-0.28,22.26,18.69,-76.93
-0.92,-0.22,-0.29,19.67,16.1,-76.51
-0.97,-0.18,-0.3,16.52,11.76,-75.53
-1.04,-0.1,-0.29,15.89,8.89,-73.78
-1.08,-0.01,-0.26,16.38,7.91,-70.98
-1.1,0.07,-0.24,14.98,7.91,-66.99
-1.13,0.1,-0.24,12.6,6.93,-62.72
-1.16,0.02,-0.29,10.71,5.39,-58.03
-1.2,-0.08,-0.31,6.51,1.82,-52.85
-1.25,-0.09,-0.28,-4.83,-5.04,-46.69
-1.26,-0.09,-0.23,-10.08,-10.99,-41.09
-1.25,-0.1,-0.2,-8.82,-18.27,-35.35
-1.24,-0.13,-0.19,-5.88,-22.89,-29.89
-1.24,-0.14,-0.16,0.07,-30.66,-24.71
-1.21,-0.14,-0.1,-0.21,-37.8,-16.31
-1.24,-0.08,-0.02,-1.19,-40.95,-4.62
-1.33,0.06,0.08,1.68,-43.82,5.88
-1.46,0.23,0.18,12.53,-50.19,20.09
-1.54,0.44,0.26,53.34,-58.1,35.7
-1.61,0.62,0.29,57.68,-66.64,51.8
-1.66,0.69,0.31,66.22,-70.28,66.36
-1.61,0.7,0.16,69.23,-66.78,78.75
-1.5,0.49,-0.1,51.45,-65.59,91.7
-1.26,0.3,-0.34,8.89,-65.73,99.19
-1.07,0.06,-0.48,-31.08,-63.35,106.4
-0.91,-0.25,-0.43,-52.99,-59.85,113.19
-0.91,-0.5,-0.4,-68.46,-43.33,118.86
-0.93,-0.76,-0.45,-61.53,-27.65,123.83
-1.06,-0.87,-0.53,-42.35,-12.32,128.52
-1.19,-0.91,-0.67,-38.15,-11.41,134.54
-1.39,-0.95,-0.74,-42.21,-23.03,138.53
-1.52,-1.04,-0.65,-35.21,-36.54,129.29
-1.45,-1.02,-0.53,-25.41,-39.34,121.38
-1.14,-0.95,-0.49,-1.75,-38.64,124.18
-1.05,-0.69,-0.53,12.32,-42.21,132.72
-1.08,-0.53,-0.34,21.84,-43.33,133.56
-1.01,-0.55,-0.17,20.93,-41.44,132.65
-0.87,-0.54,-0.12,3.85,-33.18,133.7
-0.77,-0.55,-0.14,-5.95,-28.42,133.7
-0.74,-0.59,-0.15,-13.16,-27.23,133.56
-0.73,-0.55,-0.14,-23.52,-30.87,132.51
-0.72,-0.52,-0.1,-31.57,-36.19,129.22
-0.71,-0.52,-0.06,-37.66,-36.26,120.4
-0.69,-0.52,-0.05,-43.75,-34.79,109.97
-0.67,-0.51,-0.11,-56.07,-36.12,98.98
-0.63,-0.53,-0.15,-64.89,-37.38,89.04
-0.61,-0.5,-0.16,-75.04,-36.05,78.61
-0.6,-0.52,-0.19,-85.89,-36.75,63.49
-0.52,-0.58,-0.19,-91.42,-18.41,52.78
-0.37,-0.61,-0.17,-92.47,-29.75,45.15
-0.32,-0.67,-0.22,-89.04,-25.69,37.73
-0.29,-0.72,-0.23,-82.88,-20.65,28.84
-0.24,-0.77,-0.24,-79.87,-15.54,21.56
-0.22,-0.79,-0.26,-70.63,-9.03,14.98
-0.26,-0.81,-0.24,-55.79,-5.74,8.68
-0.32,-0.79,-0.18,-33.67,1.61,2.17
-0.51,-0.81,0,-12.95,9.24,-1.05
-0.64,-0.63,0.01,-1.33,13.86,-2.94
-0.71,-0.31,-0.03,7.07,20.37,4.55
-0.88,0.1,0.05,5.81,32.13,24.78
-1.32,0.49,0.42,-9.87,37.8,45.71
-1.66,0.7,0.62,-15.19,20.86,39.27
-1.81,0.95,0.39,-21.28,-16.1,23.03
-1.68,1.39,0.76,2.94,-15.68,26.88
-1.85,2.29,0.72,49.21,-4.83,30.73
-1.95,2.41,0.49,60.48,-0.14,17.43
-1.62,1.63,0.26,41.79,1.12,18.13
-1.28,0.91,0.07,12.81,-2.52,20.37
-1.02,0.31,-0.06,-18.48,-5.74,18.62
-0.73,-0.1,-0.18,-41.09,-0.35,10.92
-0.48,-0.42,-0.3,-57.26,13.23,-11.06
-0.33,-0.73,-0.32,-56,25.41,-54.53
-0.27,-0.74,-0.22,-55.09,66.29,-76.3
-1.02,-0.51,0.04,-43.19,56.35,-73.64
-1.6,-0.31,0.36,-39.48,30.03,-49.98
-1.81,-0.03,0.39,-14.21,17.71,-20.23
-1.61,0.02,0.12,3.29,30.31,-16.24
-1.45,0,0.1,25.06,62.58,-43.89
-1.4,0.01,0.06,46.27,93.03,-73.71
-1.33,-0.28,-0.15,73.22,110.46,-62.02
-1.09,-0.87,-0.42,144.27,107.17,-17.5
-0.67,-1.06,-0.54,180.46,80.01,-8.12
-0.22,-1.5,-0.44,147.28,68.81,-47.81
0.01,-2.05,-0.38,122.71,74.41,-88.13
-0.24,-1.99,-0.61,89.11,67.62,-75.95
-0.58,-0.99,-0.61,81.83,44.17,-72.8
-0.66,-0.61,-0.45,72.87,43.47,-69.23
-0.95,-0.3,-0.46,59.85,48.86,-66.36
-1.14,-0.2,-0.49,28.77,44.17,-64.33
-1.18,-0.19,-0.51,13.65,40.46,-61.18
-1.14,-0.12,-0.54,3.71,38.57,-59.57
-1.17,-0.03,-0.58,-1.61,31.99,-64.26
-1.16,0,-0.63,2.59,2.38,-74.13
-1.02,-0.16,-0.6,25.83,12.18,-79.59
-1,-0.14,-0.45,42.07,8.54,-86.8
-0.96,-0.11,-0.37,41.58,-0.35,-94.5
-0.96,-0.11,-0.37,43.05,-4.76,-99.26
-0.93,-0.15,-0.42,41.86,-12.04,-98.56
-0.89,-0.18,-0.39,41.79,-20.3,-97.86
-0.75,-0.21,-0.26,31.43,-17.15,-93.66
-0.75,-0.22,-0.23,22.4,-11.2,-88.9
-0.82,-0.26,-0.18,9.1,-12.25,-83.79
-0.86,-0.3,-0.08,0.63,-6.93,-80.36
-0.91,-0.27,-0.01,-1.12,0.21,-78.19
-1,-0.22,0.01,-5.67,-4.83,-74.9
-0.93,-0.19,0.08,17.08,14.42,-72.94
-0.98,-0.11,0.06,33.6,23.59,-71.47
-0.96,-0.08,-0.04,39.76,25.06,-69.72
-0.94,-0.09,-0.16,42.14,27.65,-70.14
-0.95,-0.1,-0.26,33.25,24.5,-71.96
-0.96,-0.16,-0.29,24.71,19.88,-73.99
-0.93,-0.19,-0.28,15.82,16.59,-76.72
-0.92,-0.2,-0.27,10.71,14,-77.7
-0.91,-0.2,-0.29,8.61,13.02,-77.49
-0.92,-0.21,-0.32,6.3,11.41,-76.58
-0.96,-0.2,-0.35,3.57,10.08,-75.67
-1.01,-0.16,-0.35,4.06,8.47,-74.62
-1.05,-0.1,-0.31,5.53,6.86,-73.22
-1.08,-0.01,-0.26,6.23,4.83,-70.07
-1.1,0.02,-0.22,3.08,3.99,-66.08
-1.15,-0.01,-0.23,-2.59,2.73,-62.16
-1.21,-0.07,-0.25,-9.66,-1.33,-58.1
-1.25,-0.09,-0.24,-16.1,-9.03,-53.55
-1.27,-0.08,-0.19,-24.15,-16.24,-46.9
-1.25,-0.1,-0.12,-23.1,-19.11,-39.2
-1.23,-0.1,-0.06,-12.11,-22.54,-33.6
-1.25,-0.1,-0.04,2.31,-29.89,-28.35
-1.24,-0.12,-0.06,14.49,-34.09,-19.11
-1.29,-0.06,-0.08,19.95,-38.57,-9.52
-1.38,0.04,-0.02,17.22,-43.19,0.28
-1.49,0.18,0.07,19.25,-52.08,12.53
-1.56,0.46,0.15,32.34,-61.32,31.29
-1.59,0.56,0.24,54.88,-68.32,47.95
-1.63,0.73,0.28,73.36,-72.17,63.56
-1.57,0.76,0.17,76.09,-69.93,78.12
-1.47,0.61,-0.13,44.17,-67.34,88.27
-1.33,0.45,-0.44,1.26,-70.07,97.16
-1.11,0.19,-0.49,-34.79,-70.14,104.79
-0.9,-0.09,-0.38,-56.49,-64.89,117.18
-0.81,-0.53,-0.36,-68.46,-49.77,129.08
-0.9,-0.79,-0.42,-65.1,-35,134.96
-1.04,-0.97,-0.54,-47.04,-20.65,139.86
-1.22,-1.02,-0.56,-35.35,-10.92,145.32
-1.56,-1.03,-0.55,-38.08,-20.51,138.95
-1.7,-1.21,-0.51,-29.75,-37.73,128.17
-1.58,-1.22,-0.46,-4.27,-37.17,116.55
-1.35,-0.88,-0.47,4.55,-31.22,121.94
-1.01,-0.79,-0.51,14.14,-29.19,132.58
-1.07,-0.67,-0.53,26.39,-37.66,136.5
-1.03,-0.59,-0.31,18.97,-39.83,134.47
-0.81,-0.58,-0.15,8.12,-33.81,134.54
-0.71,-0.53,-0.14,-6.72,-27.51,134.26
-0.7,-0.52,-0.18,-17.36,-24.57,133.28
-0.71,-0.5,-0.18,-30.03,-28.84,132.02
-0.67,-0.53,-0.14,-39.13,-34.65,128.31
-0.63,-0.58,-0.09,-47.39,-34.02,120.4
-0.63,-0.6,-0.11,-53.9,-32.9,111.51
-0.63,-0.59,-0.12,-63.07,-32.2,101.29
-0.59,-0.58,-0.15,-69.09,-33.32,88.97
-0.55,-0.56,-0.17,-79.31,-34.86,79.45
-0.52,-0.6,-0.18,-86.45,-34.16,68.04
-0.48,-0.63,-0.21,-89.81,-32.62,57.47
-0.38,-0.66,-0.21,-91.21,-29.82,48.44
-0.3,-0.7,-0.23,-87.71,-23.66,39.62
-0.26,-0.72,-0.25,-87.64,-19.74,30.1
-0.2,-0.77,-0.23,-84.21,-15.96,19.67
-0.16,-0.78,-0.26,-74.9,-7.63,13.16
-0.24,-0.81,-0.26,-57.89,-6.3,9.87
-0.29,-0.79,-0.19,-34.23,-3.22,3.78
-0.45,-0.86,-0.08,-17.57,3.92,0.35
-0.62,-0.76,0.02,-0.7,11.83,-0.14
-0.75,-0.55,-0.02,7.7,19.39,4.27
-0.93,-0.03,0.02,7.35,31.43,22.75
-1.27,0.44,0.35,-9.24,40.46,42.91
-1.68,0.67,0.62,-18.2,27.23,38.5
-1.83,0.94,0.4,-24.71,-7.98,24.36
-1.7,1.38,0.69,-4.41,-16.17,27.16
-1.89,2.17,0.69,47.11,-2.03,34.37
-2.02,2.52,0.52,71.47,5.6,15.82
-1.77,1.69,0.31,53.41,7.91,19.39
-1.33,0.92,0.1,18.41,2.73,23.73
-1.08,0.25,-0.12,-29.4,-0.21,21.84
-0.75,-0.14,-0.22,-44.52,11.83,12.67
-0.53,-0.44,-0.3,-62.51,21.49,-14.14
-0.34,-0.7,-0.27,-61.32,32.34,-51.87
-0.4,-0.73,-0.14,-54.95,52.99,-79.17
-1.03,-0.46,0.15,-43.33,45.64,-70.49
-1.64,-0.25,0.4,-45.15,16.38,-45.5
-1.66,-0.05,0.33,-24.01,10.08,-22.12
-1.4,-0.1,0.11,-5.04,28.07,-28.21
-1.28,-0.11,0.07,17.01,63.91,-60.2
-1.28,-0.1,0,41.86,91.7,-86.94
-1.27,-0.51,-0.32,94.57,108.92,-70.21
-1.21,-0.95,-0.5,166.81,106.68,-17.78
-0.64,-1.09,-0.61,174.37,67.69,-16.1
-0.12,-1.56,-0.47,139.3,59.78,-55.37
-0.02,-1.89,-0.31,105.63,81.9,-89.39
-0.27,-1.73,-0.52,79.03,77.56,-77.98
-0.57,-0.87,-0.6,91.28,50.68,-70.63
-0.68,-0.54,-0.44,83.16,46.69,-64.26
-1,-0.26,-0.44,60.62,51.31,-64.68
-1.12,-0.19,-0.45,28.42,47.46,-63.07
-1.13,-0.21,-0.5,7.63,45.43,-59.85
-1.1,-0.16,-0.54,0.7,39.97,-59.01
-1.15,-0.12,-0.61,-4.13,30.17,-63.56
-1.13,-0.27,-0.62,13.93,17.43,-73.15
-1.1,-0.26,-0.49,39.2,12.81,-80.29
-1.05,-0.15,-0.37,44.24,3.01,-88.13
-0.99,-0.13,-0.37,49.63,-2.31,-92.68
-0.97,-0.12,-0.4,53.34,-6.16,-92.05
-0.95,-0.17,-0.45,54.81,-12.39,-90.44
-0.85,-0.15,-0.39,50.05,-13.23,-88.41
-0.8,-0.18,-0.31,46.69,-7.91,-85.68
-0.78,-0.18,-0.22,36.75,-7.21,-81.62
-0.81,-0.25,-0.13,23.45,-6.65,-76.72
-0.87,-0.25,-0.05,16.1,-0.56,-73.22
-0.93,-0.22,-0.02,14.91,2.73,-71.54
-0.96,-0.2,-0.01,14.14,0.28,-69.02
-0.91,-0.17,0.03,33.74,17.85,-64.54
-1,-0.08,0,41.51,22.96,-62.65
-1,-0.06,-0.1,43.33,22.75,-62.3
-0.97,-0.05,-0.22,43.82,24.92,-62.86
-0.95,-0.06,-0.31,35.91,23.03,-64.33
-0.93,-0.11,-0.36,26.88,20.79,-66.99
-0.91,-0.19,-0.32,21.77,18.48,-69.93
-0.89,-0.27,-0.27,17.71,14.98,-72.66
-0.88,-0.29,-0.24,13.72,12.25,-73.36
-0.87,-0.27,-0.24,10.15,10.08,-73.08
-0.89,-0.24,-0.26,6.23,8.4,-72.03
-0.95,-0.21,-0.28,3.08,8.26,-71.4
-1.02,-0.17,-0.26,3.01,6.79,-70.63
-1.08,-0.13,-0.23,4.48,5.74,-69.51
-1.12,-0.04,-0.21,6.37,4.9,-66.99
-1.13,0,-0.2,4.41,2.52,-63.63
-1.15,0,-0.22,0.14,-1.68,-59.57
-1.17,-0.04,-0.26,-10.36,-4.62,-54.18
-1.21,-0.07,-0.24,-14.84,-6.79,-47.46
-1.27,-0.05,-0.14,-17.22,-11.27,-39.41
-1.27,-0.04,-0.09,-13.09,-18.55,-30.31
-1.26,0,-0.05,-4.55,-25.76,-24.43
-1.26,0.02,-0.07,4.55,-34.93,-15.61
-1.26,0.06,-0.08,9.73,-41.86,-4.41
-1.32,0.1,-0.03,9.52,-46.48,5.53
-1.43,0.13,0.06,13.72,-49.77,15.19
-1.53,0.23,0.13,32.69,-52.01,28.28
-1.6,0.4,0.12,55.3,-55.3,48.72
-1.7,0.61,0.11,67.2,-65.24,64.96
-1.72,0.71,0.08,63,-74.2,80.85
-1.63,0.62,-0.12,24.22,-74.2,90.79
-1.42,0.46,-0.35,2.38,-75.04,99.26
-1.13,0.24,-0.5,-44.94,-77.7,105.77
-0.88,-0.05,-0.41,-66.64,-72.73,115.85
-0.81,-0.49,-0.31,-70.07,-55.72,127.4
-0.91,-0.78,-0.33,-63.14,-40.95,133.49
-1.05,-1,-0.46,-49.49,-21.84,134.75
-1.13,-1.11,-0.5,-26.11,-4.76,140.91
-1.43,-1.02,-0.61,-29.61,-13.23,139.09
-1.56,-1.07,-0.59,-33.04,-32.55,133.21
-1.51,-1.12,-0.54,-19.81,-37.59,119.07
-1.32,-0.8,-0.49,-8.82,-32.62,120.61
-0.9,-0.66,-0.48,-7.21,-30.59,128.59
-1.07,-0.59,-0.48,4.83,-37.38,133.49
-1.12,-0.56,-0.33,13.79,-44.24,132.86
-0.93,-0.59,-0.19,5.46,-43.61,133.98
-0.81,-0.6,-0.14,-4.27,-38.57,135.94
-0.76,-0.59,-0.14,-11.83,-35.28,137.2
-0.75,-0.6,-0.14,-19.6,-36.4,137.27
-0.73,-0.57,-0.1,-25.13,-40.46,134.05
-0.71,-0.58,-0.02,-30.94,-39.27,128.17
-0.69,-0.61,-0.05,-35.84,-37.03,119.42
-0.68,-0.61,-0.09,-42.07,-36.47,110.67
-0.66,-0.59,-0.1,-48.65,-37.38,100.03
-0.61,-0.6,-0.15,-52.43,-38.99,89.11
-0.55,-0.59,-0.17,-59.36,-40.25,77.63
-0.51,-0.61,-0.17,-64.89,-38.5,65.17
-0.43,-0.63,-0.17,-67.76,-35.49,52.99
-0.33,-0.63,-0.21,-70.63,-29.4,40.04
-0.26,-0.65,-0.24,-79.03,-24.57,32.69
-0.22,-0.68,-0.26,-72.94,-18.27,23.17
-0.2,-0.73,-0.3,-65.66,-9.59,14.77
-0.25,-0.79,-0.28,-48.3,-5.32,9.17
-0.3,-0.8,-0.16,-30.31,-1.19,0.91
-0.41,-0.82,-0.06,-13.93,8.75,-8.19
-0.52,-0.67,-0.08,2.87,20.93,-10.99
-0.72,-0.44,-0.14,8.75,32.62,-10.5
-0.83,-0.1,-0.08,6.02,42.07,5.74
-1.2,0.34,0.19,-13.58,43.82,31.36
-1.57,0.66,0.59,-31.43,43.12,45.43
-1.89,0.96,0.32,-31.64,6.37,35.7
-1.76,1.35,0.59,-17.5,-17.43,30.73
-1.82,2.11,0.76,37.73,-6.09,38.43
-1.99,2.5,0.59,66.85,4.55,21.56
-1.79,1.87,0.35,50.82,5.25,15.19
-1.41,1.14,0.14,12.67,2.87,17.5
-1.13,0.57,-0.06,-19.04,-0.98,17.64
-0.85,0.07,-0.18,-38.36,-1.47,11.27
-0.55,-0.3,-0.24,-52.08,6.37,-8.89
-0.33,-0.64,-0.33,-56.77,33.25,-42.7
-0.08,-0.81,-0.38,-54.46,43.05,-84
-0.22,-0.73,-0.31,-54.39,78.47,-101.01
-0.72,-0.58,-0.12,-38.92,86.73,-100.38
-1.27,-0.48,0.2,-18.62,63.42,-82.53
-1.66,-0.33,0.32,-4.9,27.51,-36.4
-1.68,-0.25,0.31,3.99,12.11,-35.07
-1.45,-0.16,0.24,-0.28,24.64,-38.15
-1.54,-0.06,0.14,2.31,67.83,-48.65
-1.94,-0.03,0.04,32.97,112.42,-57.19
-1.91,-0.29,-0.21,72.31,126.21,-36.05
-1.29,-0.57,-0.58,123.55,92.96,-9.38
-0.52,-1.03,-0.42,152.39,63.84,-40.39
-0.14,-1.38,-0.43,148.68,59.92,-58.31
0.02,-1.49,-0.5,168.7,49.07,-69.79
-0.11,-1.32,-0.52,139.3,47.46,-67.62
-0.43,-0.76,-0.74,65.73,34.65,-63.91
-0.62,-0.49,-0.72,34.23,31.36,-65.59
-0.9,-0.29,-0.7,7.35,30.8,-64.89
-1.08,-0.2,-0.62,-18.34,31.01,-63.28
-1.12,-0.17,-0.57,-33.95,28.84,-60.34
-1.17,-0.12,-0.48,-34.51,22.12,-62.02
-1.24,-0.24,-0.46,-13.58,11.83,-68.11
-1.21,-0.33,-0.35,14.28,2.24,-78.82
-1.13,-0.28,-0.28,17.64,-9.24,-88.41
-1.06,-0.27,-0.31,28.56,-14.91,-94.01
-0.99,-0.23,-0.35,25.76,-17.08,-94.99
-0.87,-0.23,-0.34,28.28,-18.69,-94.43
-0.74,-0.16,-0.26,24.08,-15.54,-90.72
-0.68,-0.2,-0.23,16.94,-7.77,-84.56
-0.7,-0.28,-0.2,10.36,-2.24,-77.28
-0.8,-0.21,-0.14,-0.7,0.63,-72.73
-0.82,-0.37,-0.01,7.56,17.29,-64.47
-0.91,-0.32,0.07,31.85,30.87,-63.42
-1.01,-0.3,0.03,45.29,26.81,-61.46
-1.01,-0.23,0.01,58.1,24.99,-60.48
-1,-0.15,-0.08,65.38,26.88,-61.18
-0.97,-0.06,-0.16,61.32,27.3,-62.3
-0.96,-0.01,-0.24,50.47,24.15,-63.98
-0.95,-0.02,-0.26,37.94,21.77,-64.89
-0.93,-0.04,-0.27,23.45,19.18,-68.18
-0.92,-0.13,-0.29,11.83,14,-70.21
-0.92,-0.2,-0.3,5.53,11.13,-71.75
-0.92,-0.22,-0.31,1.96,11.41,-73.08
-0.93,-0.21,-0.35,1.61,11.41,-73.5
-0.96,-0.19,-0.36,3.78,10.01,-72.73
-0.98,-0.14,-0.35,7,9.38,-71.26
-1.01,-0.09,-0.31,10.01,8.47,-69.44
-1.03,-0.03,-0.27,10.43,6.93,-67.06
-1.04,-0.01,-0.25,7.21,7.42,-63.56
-1.08,-0.06,-0.26,3.64,7.49,-59.92
-1.14,-0.13,-0.27,0.21,5.18,-55.3
-1.21,-0.14,-0.24,-5.88,-1.54,-48.86
-1.26,-0.13,-0.18,-9.52,-10.85,-42.98
-1.24,-0.13,-0.15,-6.65,-16.45,-38.15
-1.23,-0.13,-0.13,3.29,-19.11,-35.63
-1.23,-0.16,-0.17,8.4,-22.47,-29.96
-1.25,-0.2,-0.21,7.49,-28.63,-23.38
-1.3,-0.15,-0.16,-0.56,-35.21,-15.54
-1.37,-0.05,-0.05,-8.96,-43.4,-6.09
-1.42,0.12,0.13,-4.2,-49.35,4.27
-1.5,0.29,0.26,16.87,-54.11,17.29
-1.59,0.48,0.27,43.61,-57.96,34.02
-1.7,0.64,0.22,62.3,-64.54,50.89
-1.72,0.74,0.19,60.13,-72.94,63.7
-1.63,0.69,0.05,44.87,-77.77,77.91
-1.43,0.45,-0.13,23.03,-79.8,92.47
-1.17,0.23,-0.26,-3.99,-76.44,101.85
-0.91,0.02,-0.39,-33.74,-64.47,110.46
-0.84,-0.22,-0.38,-54.46,-54.74,117.04
-0.9,-0.51,-0.37,-54.53,-41.23,123.55
-0.93,-0.68,-0.41,-47.18,-28.42,128.45
-1.04,-0.77,-0.45,-37.03,-13.58,136.71
-1.2,-0.88,-0.66,-30.8,-8.96,139.02
-1.59,-0.9,-0.73,-38.08,-27.72,136.99
-1.57,-1.06,-0.62,-42.42,-42.49,127.19
-1.47,-1.1,-0.52,-30.52,-45.57,119.77
-1.18,-1,-0.49,6.51,-44.31,122.29
-1.08,-0.76,-0.52,32.83,-47.32,128.94
-1.11,-0.6,-0.32,37.17,-46.9,129.78
-0.97,-0.62,-0.15,28.84,-43.82,131.32
-0.76,-0.62,-0.14,18.48,-34.72,134.47
-0.73,-0.54,-0.15,3.5,-26.6,135.94
-0.72,-0.55,-0.2,-8.47,-26.11,134.33
-0.71,-0.56,-0.18,-17.01,-30.1,132.65
-0.68,-0.55,-0.09,-26.53,-31.64,128.87
-0.66,-0.53,-0.09,-36.96,-30.59,119.77
-0.65,-0.54,-0.14,-45.36,-29.75,110.32
-0.65,-0.55,-0.15,-52.71,-33.95,100.24
-0.61,-0.57,-0.16,-62.58,-36.12,90.16
-0.57,-0.56,-0.17,-71.68,-35.91,80.08
-0.55,-0.57,-0.18,-77.14,-33.18,66.85
-0.49,-0.62,-0.21,-79.87,-30.66,36.26
-0.38,-0.63,-0.21,-81.76,-25.48,42.07
-0.28,-0.68,-0.24,-79.31,-16.45,33.81
-0.21,-0.74,-0.25,-75.32,-8.12,23.24
-0.19,-0.74,-0.22,-70.56,-1.68,13.09
-0.18,-0.77,-0.23,-60.62,2.59,5.18
-0.25,-0.76,-0.23,-38.64,6.65,0.28
-0.31,-0.74,-0.14,-22.4,8.54,-10.92
-0.46,-0.76,-0.02,-5.39,14.42,-12.81
-0.67,-0.57,0.05,8.12,25.62,-8.61
-0.87,-0.21,0.04,13.86,33.04,8.12
-1.09,0.31,0.07,1.05,43.82,35.21
-1.48,0.67,0.25,-17.99,44.8,57.61
-1.8,0.87,0.13,-20.44,14.7,49.49
-1.75,0.95,0.41,-17.64,-19.74,34.37
-1.56,1.53,0.88,10.22,-4.55,27.44
-1.93,2.29,0.8,31.43,4.97,23.31
-1.95,2.37,0.52,19.04,5.74,16.1
-1.6,1.6,0.19,14.42,3.85,19.04
-1.31,0.93,-0.01,-13.23,0.49,19.04
-1.03,0.37,-0.08,-36.4,-0.56,14.35
-0.76,-0.16,-0.2,-51.1,2.94,1.68
-0.49,-0.46,-0.27,-65.38,15.61,-19.6
-0.33,-0.72,-0.32,-67.06,26.67,-53.76
-0.3,-0.84,-0.26,-63.21,46.62,-83.65
-0.77,-0.63,-0.1,-47.67,60.13,-84
-1.3,-0.39,0.21,-43.33,38.01,-66.22
-1.65,-0.3,0.35,-35.7,13.58,-33.18
-1.67,-0.07,0.24,-14.07,7.7,-20.16
-1.39,-0.03,0.16,-1.05,40.39,-37.17
-1.48,0.03,0.14,19.67,76.44,-68.53
-1.53,0.04,0.13,42.7,109.2,-87.36
-1.43,-0.26,-0.19,74.97,129.64,-72.31
-1.05,-0.9,-0.66,145.46,105.49,-18.97
-0.5,-1.09,-0.59,164.01,66.15,-30.8
